loggingTime,loggingSample,identifierForVendor,deviceID,locationTimestamp_since1970,locationLatitude,locationLongitude,locationAltitude,locationSpeed,locationCourse,locationVerticalAccuracy,locationHorizontalAccuracy,locationFloor,locationHeadingTimestamp_since1970,locationHeadingX,locationHeadingY,locationHeadingZ,locationTrueHeading,locationMagneticHeading,locationHeadingAccuracy,accelerometerTimestamp_sinceReboot,accelerometerAccelerationX,accelerometerAccelerationY,accelerometerAccelerationZ,gyroTimestamp_sinceReboot,gyroRotationX,gyroRotationY,gyroRotationZ,motionTimestamp_sinceReboot,motionYaw,motionRoll,motionPitch,motionRotationRateX,motionRotationRateY,motionRotationRateZ,motionUserAccelerationX,motionUserAccelerationY,motionUserAccelerationZ,motionAttitudeReferenceFrame,motionQuaternionX,motionQuaternionY,motionQuaternionZ,motionQuaternionW,motionGravityX,motionGravityY,motionGravityZ,motionMagneticFieldX,motionMagneticFieldY,motionMagneticFieldZ,motionMagneticFieldCalibrationAccuracy,IP_en0,IP_pdp_ip0,deviceOrientation,batteryState,batteryLevel,state
2015-10-13 22:34:18.495,1,2D29A3A2-A889-408C-8DE8-A171CBC55D6F,my_iOS_device_1,1444800857.943895,37.75646137077153,-122.4212591351219,14,0,-1,4,5,-9999,1444800858.257198,73.13553619384766,708.8997802734375,-464.4784545898438,7.614093780517578,353.9056701660156,-1,46383.67193945833,-0.039825439453125,-0.7269134521484375,-0.7696533203125,46383.63672566667,-0.2002140539071761,-0.05586726071546425,-0.001666073577953571,46383.63672566667,0.1283722026561052,-0.06831972327883683,0.7871348675500441,-0.1636257469654083,-0.06785007566213608,-0.01254668086767197,-0.026442876085639,-0.02099059149622917,-0.03343994915485382,XArbitraryZVertical,0.3844957723487072,-0.006893952343351432,0.04613332426960606,0.9219474989710059,-0.04818785935640335,-0.7083337306976318,-0.7042309641838074,0,0,0,-1,10.0.0.62,0.0.0.0,1,2,0.54,0
2015-10-13 22:34:18.503,2,2D29A3A2-A889-408C-8DE8-A171CBC55D6F,my_iOS_device_1,1444800857.943895,37.75646137077153,-122.4212591351219,14,0,-1,4,5,-9999,1444800858.257198,73.13553619384766,708.8997802734375,-464.4784545898438,7.614093780517578,353.9056701660156,-1,46383.779517125,-0.07568359375,-0.7290802001953125,-0.7170867919921875,46383.73559045834,0.009367402818244712,-0.001033572819059752,0.06993434390937178,46383.73559045834,0.1290030193173189,-0.07335158354572888,0.7848292299077237,0.04590939357876778,-0.01300416234880686,0.05904459208250046,0.01088052894920111,-0.006613500881940126,-0.01025963202118874,XArbitraryZVertical,0.3835525462153165,-0.009176924144944512,0.04552400046593982,0.9223506891289026,-0.05185037851333618,-0.7067043781280518,-0.7056064605712891,0,0,0,-1,10.0.0.62,0.0.0.0,1,2,0.54,0
2015-10-13 22:34:18.508,3,2D29A3A2-A889-408C-8DE8-A171CBC55D6F,my_iOS_device_1,1444800857.943895,37.75646137077153,-122.4212591351219,14,0,-1,4,5,-9999,1444800858.257198,73.13553619384766,708.8997802734375,-464.4784545898438,7.614093780517578,353.9056701660156,-1,46383.88727166667,-0.04193115234375,-0.723419189453125,-0.7265472412109375,46383.834457,-0.03700009597279788,0.02318468150190282,-0.0247231896636416,46383.834457,0.1306764373778233,-0.07618637394322815,0.7886381703689842,-0.0004341380554251373,0.01119637489318848,-0.03559574857354164,0.002955445554107428,-0.01298749540001154,-0.0033024069853127,XArbitraryZVertical,0.3853774962552003,-0.01002076363397699,0.04563754640624657,0.9215752731243835,-0.05364514142274857,-0.709394097328186,-0.702767550945282,0,0,0,-1,10.0.0.62,0.0.0.0,1,2,0.54,0
2015-10-13 22:34:18.692,4,2D29A3A2-A889-408C-8DE8-A171CBC55D6F,my_iOS_device_1,1444800857.943895,37.75646137077153,-122.4212591351219,14,0,-1,4,5,-9999,1444800858.566752,72.38014984130859,709.1057739257812,-464.8346557617188,7.481189727783203,353.7727661132812,-1,46383.997788875,-0.062225341796875,-0.7287445068359375,-0.7169189453125,46383.93332370833,-0.007217699186332751,0.002687129539889951,0.01954200976289244,46383.93332370833,0.1288530496755723,-0.07591331064144174,0.7906595615743521,0.02931977622210979,-0.009258955717086792,0.008628252893686295,0.003554950468242168,-0.01849173568189144,-0.005588803440332413,XArbitraryZVertical,0.3862914612782399,-0.01017153287010536,0.04478960726195175,0.9212325102513014,-0.05334438011050224,-0.7108173370361328,-0.7013508677482605,0,0,0,-1,10.0.0.62,0.0.0.0,1,2,0.54,0
2015-10-13 22:34:18.833,5,2D29A3A2-A889-408C-8DE8-A171CBC55D6F,my_iOS_device_1,1444800857.943895,37.75646137077153,-122.4212591351219,14,0,-1,4,5,-9999,1444800858.67553,72.65483093261719,708.5564575195312,-464.692138671875,7.482929229736328,353.7745056152344,-1,46384.10674479167,-0.0573883056640625,-0.7236480712890625,-0.7149658203125,46384.03218900001,-0.001225320417545457,0.003720169726731688,0.007371097265121316,46384.03218900001,0.1294432456529961,-0.07777758908546067,0.7923555421576841,0.03529138118028641,-0.008240469731390476,-0.003525714855641127,0.005851997062563896,-0.01151676382869482,-0.02265469543635845,XArbitraryZVertical,0.3871156771126199,-0.0108529880718428,0.04464987545287577,0.9208854726868011,-0.05455804988741875,-0.7120092511177063,-0.7000473141670227,0,0,0,-1,10.0.0.62,0.0.0.0,1,2,0.54,0
2015-10-13 22:34:18.839,6,2D29A3A2-A889-408C-8DE8-A171CBC55D6F,my_iOS_device_1,1444800857.943895,37.75646137077153,-122.4212591351219,14,0,-1,4,5,-9999,1444800858.67553,72.65483093261719,708.5564575195312,-464.692138671875,7.482929229736328,353.7745056152344,-1,46384.21639775,-0.0603485107421875,-0.72857666015625,-0.70709228515625,46384.13105729167,0.008288289944544605,0.004012584814422388,0.01851243168546781,46384.13105729167,0.1299990981612055,-0.07874701988264697,0.7963856667283479,0.0448068305850029,-0.007937268353998661,0.007604910992085934,0.0004450656997505575,-0.01362130884081125,-0.01283309701830149,XArbitraryZVertical,0.388991241762808,-0.01104053681459795,0.04459458336721654,0.9200952361103593,-0.05501049384474754,-0.7148332595825195,-0.6971278190612793,0,0,0,-1,10.0.0.62,0.0.0.0,1,2,0.54,0
2015-10-13 22:34:18.976,7,2D29A3A2-A889-408C-8DE8-A171CBC55D6F,my_iOS_device_1,1444800857.943895,37.75646137077153,-122.4212591351219,14,0,-1,4,5,-9999,1444800858.82631,75.33305358886719,709.7239379882812,-461.9134216308594,7.479846954345703,353.7714233398438,-1,46384.32632329167,-0.059417724609375,-0.7314910888671875,-0.705078125,46384.229918625,-0.02025413903837963,0.004311924120947295,-0.0161259730326478,46384.229918625,0.1297015215574308,-0.08025350706469293,0.79923799055468,0.01626700907945633,-0.007653139997273684,-0.0270177349448204,-0.0005910744075663388,-0.006624721456319094,-0.00720050185918808,XArbitraryZVertical,0.3903319024381049,-0.01168419881096801,0.04407618869961544,0.9195443301042698,-0.05589696392416954,-0.716825008392334,-0.6950089931488037,0,0,0,-1,10.0.0.62,0.0.0.0,1,2,0.54,0
2015-10-13 22:34:19.146,8,2D29A3A2-A889-408C-8DE8-A171CBC55D6F,my_iOS_device_1,1444800858.949586,37.75645428806335,-122.4212609791406,14,0.2328128,97.3828125,4,5,-9999,1444800859.138602,74.02829742431641,708.6939086914062,-462.982177734375,7.478900909423828,353.7704772949219,-1,46384.43582983334,-0.0479583740234375,-0.7360992431640625,-0.6999664306640625,46384.42765058333,-0.02622760936342736,-0.007380950961154609,0.003295661848973057,46384.32878341667,0.1283059162188634,-0.07954043372657398,0.8005506435940429,0.01261099707335234,0.006926898844540119,-0.0146716283634305,-0.004091180395334959,-0.01375146955251694,-0.01096803788095713,XArbitraryZVertical,0.3909103015771277,-0.01157984267141495,0.04353332262321432,0.9193257818564461,-0.05532654374837875,-0.7177396416664124,-0.694110095500946,0,0,0,-1,10.0.0.62,0.0.0.0,1,2,0.54,0
2015-10-13 22:34:19.214,9,2D29A3A2-A889-408C-8DE8-A171CBC55D6F,my_iOS_device_1,1444800858.949586,37.75645428806335,-122.4212609791406,14,0.2328128,97.3828125,4,5,-9999,1444800859.138602,74.02829742431641,708.6939086914062,-462.982177734375,7.478900909423828,353.7704772949219,-1,46384.54342129167,-0.0545654296875,-0.7305145263671875,-0.71484375,46384.52651783334,-0.01424418340639781,-0.01466336496197629,-0.007657387082304834,46384.42765058333,0.126021177489013,-0.07756458981346433,0.8022283157960859,0.01030220743268728,-0.01934582740068436,-0.007596126291900873,0.005903229583054781,-0.01920661143958569,-0.00890299491584301,XArbitraryZVertical,0.3916241380980162,-0.01105686146907964,0.04281876378686216,0.9190619313959221,-0.05386160314083099,-0.7189068198204041,-0.6930165886878967,0,0,0,-1,10.0.0.62,0.0.0.0,1,2,0.54,0
2015-10-13 22:34:19.506,10,2D29A3A2-A889-408C-8DE8-A171CBC55D6F,my_iOS_device_1,1444800858.949586,37.75645428806335,-122.4212609791406,14,0.2328128,97.3828125,4,5,-9999,1444800859.344389,74.92103576660156,709.0372314453125,-462.055908203125,7.478900909423828,353.7704772949219,-1,46384.65201091667,-0.052734375,-0.7362823486328125,-0.7049102783203125,46384.62538454167,-0.02983406211161267,0.002134789929807517,0.0008921589651765448,46384.62538454167,0.1240314655782725,-0.07816885063221912,0.8038378296229738,0.006507886108011007,-0.009724571369588375,-0.01012156717479229,-0.005227794405072927,-0.01351112313568592,-0.01813150383532047,XArbitraryZVertical,0.3923635908368705,-0.01166601467641722,0.04173772225367096,0.9187887021661942,-0.05418993160128593,-0.7200246453285217,-0.6918294429779053,0,0,0,-1,10.0.0.62,0.0.0.0,1,2,0.54,0
2015-10-13 22:34:19.511,11,2D29A3A2-A889-408C-8DE8-A171CBC55D6F,my_iOS_device_1,1444800858.949586,37.75645428806335,-122.4212609791406,14,0.2328128,97.3828125,4,5,-9999,1444800859.344389,74.92103576660156,709.0372314453125,-462.055908203125,7.478900909423828,353.7704772949219,-1,46384.76128433333,-0.0575103759765625,-0.731414794921875,-0.703094482421875,46384.72424870833,-0.01795103732767911,0.01426468974679142,0.002371544950715562,46384.72424870833,0.1219862295372976,-0.07691607450963575,0.8040755926500658,0.0183758120983839,0.002412524772807956,-0.008647985756397247,0.0005909080500714481,-0.01410908810794353,-0.01321472600102425,XArbitraryZVertical,0.3924348355055888,-0.01148325068115059,0.04103685529638553,0.9187921480633562,-0.05331002548336983,-0.72018963098526,-0.6917260885238647,0,0,0,-1,10.0.0.62,0.0.0.0,1,2,0.54,0
2015-10-13 22:34:19.518,12,2D29A3A2-A889-408C-8DE8-A171CBC55D6F,my_iOS_device_1,1444800858.949586,37.75645428806335,-122.4212609791406,14,0.2328128,97.3828125,4,5,-9999,1444800859.344389,74.92103576660156,709.0372314453125,-462.055908203125,7.478900909423828,353.7704772949219,-1,46384.870630875,-0.05462646484375,-0.7353973388671875,-0.7079010009765625,46384.82311416667,-0.0227303462199353,0.00842357852792063,0.01328651067840532,46384.82311416667,0.1209490276707316,-0.07720794721884899,0.805150984157028,0.01359553821384907,-0.003425616072490811,0.002264410024508834,-0.001128538511693478,-0.007473529782146215,-0.015101526863873,XArbitraryZVertical,0.3929277453725503,-0.01178286366396861,0.04047131849101618,0.9186027560485095,-0.05345214903354645,-0.7209352850914001,-0.690937876701355,0,0,0,-1,10.0.0.62,0.0.0.0,1,2,0.54,0
2015-10-13 22:34:19.644,13,2D29A3A2-A889-408C-8DE8-A171CBC55D6F,my_iOS_device_1,1444800858.949586,37.75645428806335,-122.4212609791406,14,0.2328128,97.3828125,4,5,-9999,1444800859.452221,72.79221343994141,708.5565185546875,-463.9796447753906,7.481098175048828,353.7726745605469,-1,46384.97982691667,-0.048828125,-0.7332916259765625,-0.7108154296875,46384.92198116667,-0.0382544448462252,0.01658084094683334,0.008278968880729327,46384.92198116667,0.1205033806499563,-0.0776826764052034,0.8062849844310239,-0.001926102791912854,0.004726869519799948,-0.002738013863563538,-0.008615480735898018,-0.01285267900675535,-0.01693432033061981,XArbitraryZVertical,0.3934544062488346,-0.01204846109643631,0.04013977014146843,0.9183884056550213,-0.05371667444705963,-0.7217206954956055,-0.690096914768219,0,0,0,-1,10.0.0.62,0.0.0.0,1,2,0.54,0
2015-10-13 22:34:19.736,14,2D29A3A2-A889-408C-8DE8-A171CBC55D6F,my_iOS_device_1,1444800858.949586,37.75645428806335,-122.4212609791406,14,0.2328128,97.3828125,4,5,-9999,1444800859.603638,74.85237121582031,709.6552734375,-461.984619140625,7.483448028564453,353.7750244140625,-1,46385.08919891667,-0.051788330078125,-0.736236572265625,-0.7029571533203125,46385.02084770834,-0.03341867693885932,-0.001363005845902554,0.008167648747164016,46385.02084770834,0.1183194712665747,-0.07573825887088939,0.806698587080712,0.002896117279306054,-0.01321171876043081,-0.002853235695511103,0.003447725437581539,-0.0171746052801609,-0.01493162102997303,XArbitraryZVertical,0.3935923438069061,-0.01157086974556773,0.03950741262590191,0.9183628619546423,-0.05235214531421661,-0.7220069169998169,-0.6899023652076721,0,0,0,-1,10.0.0.62,0.0.0.0,1,2,0.54,0
2015-10-13 22:34:19.791,15,2D29A3A2-A889-408C-8DE8-A171CBC55D6F,my_iOS_device_1,1444800858.949586,37.75645428806335,-122.4212609791406,14,0.2328128,97.3828125,4,5,-9999,1444800859.708259,74.23431396484375,709.7239379882812,-462.0558471679688,7.484638214111328,353.7762145996094,-1,46385.198252125,-0.05950927734375,-0.7383575439453125,-0.6991119384765625,46385.119712125,-0.02511014697003011,0.01655021459429742,-0.0001419464861012234,46385.119712125,0.117459131335999,-0.07588291346947101,0.8073356359199116,0.01119167264550924,0.004698147997260094,-0.01115801557898521,0.00258185644634068,-0.009791238233447075,-0.01452821958810091,XArbitraryZVertical,0.3938821072411066,-0.01178468605839442,0.03906546110193179,0.9182548102344477,-0.05241706222295761,-0.7224475145339966,-0.6894360184669495,0,0,0,-1,10.0.0.62,0.0.0.0,1,2,0.54,0
2015-10-13 22:34:19.958,16,2D29A3A2-A889-408C-8DE8-A171CBC55D6F,my_iOS_device_1,1444800858.949586,37.75645428806335,-122.4212609791406,14,0.2328128,97.3828125,4,5,-9999,1444800859.915225,74.30299377441406,708.5565185546875,-462.9820861816406,7.486011505126953,353.777587890625,-1,46385.30694454167,-0.0537109375,-0.736297607421875,-0.703948974609375,46385.21857745833,-0.02272475358164614,0.009555688307313315,0.009622001018456288,46385.21857745833,0.1177186493361202,-0.07743565927195986,0.8086275078755424,0.01357539463788271,-0.002293381607159972,-0.001396604347974062,-0.006048228126019239,-0.007067553699016571,-0.009804224595427513,XArbitraryZVertical,0.3945058230627954,-0.01240175296793816,0.03884092457012309,0.9179884175039488,-0.05341527238488197,-0.7233401536941528,-0.688422679901123,0,0,0,-1,10.0.0.62,0.0.0.0,1,2,0.54,0
2015-10-13 22:34:20.093,17,2D29A3A2-A889-408C-8DE8-A171CBC55D6F,my_iOS_device_1,1444800859.937875,37.75645357560158,-122.4212572911032,15,0.1525206,97.3828125,4,5,-9999,1444800859.915225,74.30299377441406,708.5565185546875,-462.9820861816406,7.486011505126953,353.777587890625,-1,46385.41434545834,-0.0489959716796875,-0.7419891357421875,-0.693023681640625,46385.31744429167,-0.01439811411740439,0.01798619105406815,0.007349259344182665,46385.31744429167,0.1165425804550584,-0.07722923064888355,0.8095145079865397,0.02189580351114273,0.006132770329713821,-0.003663992043584585,-0.0004567804280668497,-0.01341337990015745,-0.02007672935724258,XArbitraryZVertical,0.3949008221055036,-0.01250852825173313,0.03831595570694245,0.9178391825149074,-0.05322363972663879,-0.7239523530006409,-0.6877937316894531,0,0,0,-1,10.0.0.62,0.0.0.0,1,2,0.54,0
2015-10-13 22:34:20.192,18,2D29A3A2-A889-408C-8DE8-A171CBC55D6F,my_iOS_device_1,1444800859.937875,37.75645357560158,-122.4212572911032,15,0.1525206,97.3828125,4,5,-9999,1444800860.127542,74.302978515625,708.1444702148438,-462.8395080566406,7.490131378173828,353.7817077636719,-1,46385.52266183333,-0.0526885986328125,-0.736419677734375,-0.7147369384765625,46385.51517387501,-0.02032764228446582,0.02236868894390254,-0.01228223263133644,46385.416308625,0.1163411253322724,-0.07746114862123939,0.8107066224764246,-0.004287292715162039,-0.007400264032185078,-0.009000683203339577,0.004320355597883463,-0.01721492782235146,-0.006103223655372858,XArbitraryZVertical,0.3954499489902291,-0.01261383254442727,0.03814288939783959,0.9176084944356975,-0.05331632867455482,-0.724774181842804,-0.6869204640388489,0,0,0,-1,10.0.0.62,0.0.0.0,1,2,0.54,0
2015-10-13 22:34:20.223,19,2D29A3A2-A889-408C-8DE8-A171CBC55D6F,my_iOS_device_1,1444800859.937875,37.75645357560158,-122.4212572911032,15,0.1525206,97.3828125,4,5,-9999,1444800860.127542,74.302978515625,708.1444702148438,-462.8395080566406,7.490131378173828,353.7817077636719,-1,46385.63277058334,-0.0518341064453125,-0.7391357421875,-0.6950836181640625,46385.61404608333,-0.0226765503659157,0.00571194790600195,-0.003890079404278743,46385.51517387501,0.1149813999147972,-0.07661580883009289,0.8110534653225618,0.01595749519765377,0.01051027420908213,-0.02328878827393055,0.001965650357306004,-0.01036894507706165,-0.02703052014112473,XArbitraryZVertical,0.3955842198647162,-0.01248305837228735,0.03767614996057619,0.9175716898269271,-0.05271638184785843,-0.7250131368637085,-0.6867145895957947,0,0,0,-1,10.0.0.62,0.0.0.0,1,2,0.54,0
2015-10-13 22:34:20.693,20,2D29A3A2-A889-408C-8DE8-A171CBC55D6F,my_iOS_device_1,1444800859.937875,37.75645357560158,-122.4212572911032,15,0.1525206,97.3828125,4,5,-9999,1444800860.488633,74.85234069824219,708.28173828125,-464.1219177246094,7.499591827392578,353.7911682128906,-1,46385.74254808333,-0.06048583984375,-0.743408203125,-0.7020111083984375,46385.71290879167,-0.0226560440255221,0.01141803685760573,-0.01976358476558704,46385.71290879167,0.1107082459527858,-0.07512046691865712,0.8147001050241499,0.01355723012238741,-0.0003318324452266097,-0.03085732087492943,-0.00899515300989151,-0.01488124579191208,-0.01785941608250141,XArbitraryZVertical,0.3971993720164771,-0.0125225011853191,0.03590869249839111,0.9169440613455275,-0.05149068683385849,-0.7275198698043823,-0.6841517090797424,0,0,0,-1,10.0.0.62,0.0.0.0,1,2,0.54,0
2015-10-13 22:34:20.746,21,2D29A3A2-A889-408C-8DE8-A171CBC55D6F,my_iOS_device_1,1444800859.937875,37.75645357560158,-122.4212572911032,15,0.1525206,97.3828125,4,5,-9999,1444800860.488633,74.85234069824219,708.28173828125,-464.1219177246094,7.499591827392578,353.7911682128906,-1,46385.85317679167,-0.040252685546875,-0.7399749755859375,-0.7066802978515625,46385.81177125,-0.04156528671341171,-0.01806262377735342,-0.04844183496410531,46385.81177125,0.1046180639489952,-0.07273852402500311,0.8160711201363082,-0.005342195276170969,-0.02982626110315323,-0.05952174216508865,-0.008820611983537674,-0.01479578670114279,-0.01084536220878363,XArbitraryZVertical,0.3977472049937419,-0.0125970087843576,0.03355228085931357,0.9167948084159756,-0.04978839680552483,-0.7284598350524902,-0.6832769513130188,0,0,0,-1,10.0.0.62,0.0.0.0,1,2,0.54,0
2015-10-13 22:34:20.752,22,2D29A3A2-A889-408C-8DE8-A171CBC55D6F,my_iOS_device_1,1444800859.937875,37.75645357560158,-122.4212572911032,15,0.1525206,97.3828125,4,5,-9999,1444800860.640158,74.44032287597656,707.86962890625,-463.5519409179688,7.508197784423828,353.7997741699219,-1,46385.962497125,-0.0278778076171875,-0.7515106201171875,-0.7004852294921875,46385.91063891667,-0.03789332020241046,-0.02920209398493686,-0.06933087160635983,46385.91063891667,0.09599695951170674,-0.07105627769008237,0.8171547540587921,-0.001672866521403193,-0.04097630828619003,-0.08039902895689011,-0.01968500763177872,-0.0181584432721138,-0.00671332934871316,XArbitraryZVertical,0.3981601957081892,-0.0135086626152321,0.0299066258265732,0.9167287321337912,-0.04858281463384628,-0.7292017936706543,-0.6825719475746155,0,0,0,-1,10.0.0.62,0.0.0.0,1,2,0.54,0
2015-10-13 22:34:20.759,23,2D29A3A2-A889-408C-8DE8-A171CBC55D6F,my_iOS_device_1,1444800859.937875,37.75645357560158,-122.4212572911032,15,0.1525206,97.3828125,4,5,-9999,1444800860.640158,74.44032287597656,707.86962890625,-463.5519409179688,7.508197784423828,353.7997741699219,-1,46386.07139525,-0.000701904296875,-0.73431396484375,-0.7258758544921875,46386.009504125,-0.06036880190602518,-0.03306980283605894,-0.1382417627088142,46386.009504125,0.08316366865034382,-0.06974522107198973,0.8180708098806131,-0.02412836253643036,-0.04487176612019539,-0.149282306432724,-0.03223844990134239,-0.01260330528020859,0.01309938728809357,XArbitraryZVertical,0.3984688875454199,-0.01543835819873523,0.02426246027654339,0.9167308960517079,-0.04764131084084511,-0.7298283576965332,-0.6819683909416199,0,0,0,-1,10.0.0.62,0.0.0.0,1,2,0.54,0
2015-10-13 22:34:20.776,24,2D29A3A2-A889-408C-8DE8-A171CBC55D6F,my_iOS_device_1,1444800859.937875,37.75645357560158,-122.4212572911032,15,0.1525206,97.3828125,4,5,-9999,1444800860.743931,74.78367614746094,706.9769287109375,-463.908203125,7.822559356689453,354.1141357421875,-1,46386.18044725,-0.0413360595703125,-0.744720458984375,-0.6889801025390625,46386.10837166667,0.004846420551726197,0.005371329602580815,-0.03664722712836238,46386.10837166667,0.06310569495664724,-0.05760536311054355,0.8151446008627348,0.04107316210865974,-0.006412364076822996,-0.04770543426275253,0.03589597716927528,-0.002476135268807411,-0.03351398929953575,XArbitraryZVertical,0.3968541466850878,-0.01392680890395254,0.01754180803018574,0.9176083670191929,-0.03948179259896278,-0.7278247475624084,-0.6846256852149963,0,0,0,-1,10.0.0.62,0.0.0.0,1,2,0.54,0
2015-10-13 22:34:21.076,25,2D29A3A2-A889-408C-8DE8-A171CBC55D6F,my_iOS_device_1,1444800860.920229,37.75645382705867,-122.4212551118083,16,0.1694649,97.3828125,4,5,-9999,1444800860.949136,74.16563415527344,707.5949096679688,-462.6969604492188,8.121784210205078,354.4133605957031,-1,46386.28935908333,-0.0556793212890625,-0.746337890625,-0.709747314453125,46386.20724341667,-0.04869297105489978,-0.03354357919398403,-0.03887016769025152,46386.20724341667,0.05839464321567698,-0.05726811027582059,0.815890448542947,-0.01246514450758696,-0.04532699286937714,-0.04992837831377983,-0.02709488198161125,-0.01807814463973045,-0.01106312219053507,XArbitraryZVertical,0.3971595803426144,-0.0146926075734823,0.01543311252956837,0.9175021602494536,-0.03921981528401375,-0.7283360362052917,-0.6840968132019043,0,0,0,-1,10.0.0.62,0.0.0.0,1,2,0.54,0
2015-10-13 22:34:21.090,26,2D29A3A2-A889-408C-8DE8-A171CBC55D6F,my_iOS_device_1,1444800860.920229,37.75645382705867,-122.4212551118083,16,0.1694649,97.3828125,4,5,-9999,1444800861.05382,75.19571685791016,707.3887939453125,-462.6256713867188,8.325214385986328,354.6167907714844,-1,46386.39834795833,-0.0355682373046875,-0.722320556640625,-0.65679931640625,46386.30610016667,-0.06379256180343104,-0.06693083083198043,-0.1520763519395578,46386.30610016667,0.0408470348549802,-0.05342343935848907,0.8130462549277988,-0.02755417115986347,-0.07872781902551651,-0.1631207168102264,-0.02374019101262093,-0.01713081635534763,-0.02453762292861938,XArbitraryZVertical,0.3956957079223435,-0.01645432399619366,0.008192187495081214,0.9181977183688182,-0.03669987246394157,-0.7263842225074768,-0.6863083243370056,0,0,0,-1,10.0.0.62,0.0.0.0,1,2,0.54,0
2015-10-13 22:34:21.118,27,2D29A3A2-A889-408C-8DE8-A171CBC55D6F,my_iOS_device_1,1444800860.920229,37.75645382705867,-122.4212551118083,16,0.1694649,97.3828125,4,5,-9999,1444800861.05382,75.19571685791016,707.3887939453125,-462.6256713867188,8.325214385986328,354.6167907714844,-1,46386.50643545834,-0.0793304443359375,-0.7408905029296875,-0.775848388671875,46386.40496650001,-0.2722088855519422,-0.0759408374319365,-0.2759146742087874,46386.40496650001,0.004085720736069832,-0.04222749620317426,0.8039171272165068,-0.2359234839677811,-0.0877612829208374,-0.2869391441345215,-0.00627564825117588,-0.002240887377411127,0.03647351264953613,XArbitraryZVertical,0.3911732281434686,-0.0186303925492694,-0.006379905378959363,0.9201063584524496,-0.02929258905351162,-0.7200796604156494,-0.6932728290557861,0,0,0,-1,10.0.0.62,0.0.0.0,1,2,0.54,0
2015-10-13 22:34:21.446,28,2D29A3A2-A889-408C-8DE8-A171CBC55D6F,my_iOS_device_1,1444800860.920229,37.75645382705867,-122.4212551118083,16,0.1694649,97.3828125,4,5,-9999,1444800861.261108,76.22580718994141,705.12255859375,-463.409423828125,9.202838897705078,355.4944152832031,-1,46386.615736375,-0.0542755126953125,-0.7150421142578125,-0.745452880859375,46386.60270158334,-0.1452197773970398,-0.3640091135914095,-0.552777433765643,46386.50383266667,-0.03827367573541639,-0.02533536869278033,0.7683024863496585,-0.2793034017086029,-0.302816241979599,-0.2870212197303772,-0.04956304654479027,-0.04165669158101082,-0.05297476798295975,XArbitraryZVertical,0.3744489574664137,-0.01891290424300548,-0.02248608057146972,0.9267818818286959,-0.01821649447083473,-0.6949155926704407,-0.7188605666160583,0,0,0,-1,10.0.0.62,0.0.0.0,1,2,0.54,0
2015-10-13 22:34:21.665,29,2D29A3A2-A889-408C-8DE8-A171CBC55D6F,my_iOS_device_1,1444800860.920229,37.75645382705867,-122.4212551118083,16,0.1694649,97.3828125,4,5,-9999,1444800861.369544,75.60774993896484,702.8564453125,-461.7706909179688,10.02556228637695,356.317138671875,-1,46386.7236525,-0.07745361328125,-0.7336273193359375,-0.757293701171875,46386.701569375,0.1436868618735902,-0.6811098403743814,-0.6638280554286392,46386.701569375,-0.1808200876923413,-0.002655385788133735,0.7481543206775614,0.1795189827680588,-0.6927717924118042,-0.6748142242431641,-0.05150528624653816,-0.05874179303646088,-0.02689879387617111,XArbitraryZVertical,0.3638093354210266,-0.03422287599544117,-0.08452625633437695,0.9269988534023121,-0.00194625137373805,-0.6802871227264404,-0.7329431176185608,0,0,0,-1,10.0.0.62,0.0.0.0,1,2,0.54,0
2015-10-13 22:34:21.686,30,2D29A3A2-A889-408C-8DE8-A171CBC55D6F,my_iOS_device_1,1444800860.920229,37.75645382705867,-122.4212551118083,16,0.1694649,97.3828125,4,5,-9999,1444800861.5366,76.70650482177734,697.637451171875,-454.645751953125,12.1904182434082,358.4819946289062,-1,46386.83238645834,0.064788818359375,-0.7086181640625,-0.70574951171875,46386.80043454167,0.9989045869374279,-0.8666821009244108,-0.8233085278308353,46386.80043454167,-0.2923008295914524,-0.01630797844188142,0.8054702195541339,1.034735560417175,-0.8783448934555054,-0.8342932462692261,-0.02553750388324261,0.01426255702972412,-0.06836727261543274,XArbitraryZVertical,0.3866523219958296,-0.06449757144284934,-0.1371364050647162,0.9096887663256752,-0.01129721384495497,-0.7211564779281616,-0.6926800608634949,0,0,0,-1,10.0.0.62,0.0.0.0,1,2,0.54,0
2015-10-13 22:34:21.695,31,2D29A3A2-A889-408C-8DE8-A171CBC55D6F,my_iOS_device_1,1444800860.920229,37.75645382705867,-122.4212551118083,16,0.1694649,97.3828125,4,5,-9999,1444800861.5366,76.70650482177734,697.637451171875,-454.645751953125,12.1904182434082,358.4819946289062,-1,46386.94251441667,0.1265716552734375,-0.7496795654296875,-0.627899169921875,46386.89929954167,0.6095728061209998,-0.6203476895753515,-0.5303352415756543,46386.89929954167,-0.3876380039445148,-0.03898814857788246,0.915090946721577,0.6454004049301147,-0.6320034265518188,-0.5413267612457275,0.09030935168266296,0.0648958757519722,0.1019614413380623,XArbitraryZVertical,0.4300253833698629,-0.1022281708134892,-0.1812128946893138,0.878515485092918,-0.02376577258110046,-0.7926180362701416,-0.6092551350593567,0,0,0,-1,10.0.0.62,0.0.0.0,1,2,0.54,0
2015-10-13 22:34:21.701,32,2D29A3A2-A889-408C-8DE8-A171CBC55D6F,my_iOS_device_1,1444800860.920229,37.75645382705867,-122.4212551118083,16,0.1694649,97.3828125,4,5,-9999,1444800861.676998,78.21729278564453,696.1265869140625,-452.7931518554688,13.73494338989258,0.026519775390625,-1,46387.05100979167,0.08447265625,-0.7878570556640625,-0.7329254150390625,46386.99816283333,0.05830884680284889,-0.2020854572051747,-0.1298488105334294,46386.99816283333,-0.4495913270277022,-0.01695052133423286,0.9245274744421814,0.09413574635982513,-0.2137409597635269,-0.140840083360672,0.1045524105429649,0.05363109335303307,-0.112596295773983,XArbitraryZVertical,0.4330479993770521,-0.106802336846688,-0.2031894467157403,0.8716517308093675,-0.01020731683820486,-0.7983362674713135,-0.6021254062652588,0,0,0,-1,10.0.0.62,0.0.0.0,1,2,0.54,0
2015-10-13 22:34:21.893,33,2D29A3A2-A889-408C-8DE8-A171CBC55D6F,my_iOS_device_1,1444800860.920229,37.75645382705867,-122.4212551118083,16,0.1694649,97.3828125,4,5,-9999,1444800861.676998,78.21729278564453,696.1265869140625,-452.7931518554688,13.73494338989258,0.026519775390625,-1,46387.160910625,0.01641845703125,-0.802734375,-0.608001708984375,46387.09703108334,0.102944491937013,0.1869190211132825,0.07035379178105927,46387.09703108334,-0.4699382237206797,0.005283562607359417,0.9263574312387626,0.138737216591835,0.1753343641757965,0.059288389980793,0.05567906424403191,0.01368563342839479,-0.002056881785392761,XArbitraryZVertical,0.435065658206389,-0.1017206121944485,-0.2071344022801794,0.8703253009629536,0.003174085170030594,-0.7994369864463806,-0.6007415652275085,0,0,0,-1,10.0.0.62,0.0.0.0,1,2,0.54,0
2015-10-13 22:34:22.120,34,2D29A3A2-A889-408C-8DE8-A171CBC55D6F,my_iOS_device_1,1444800861.981907,37.75645382705867,-122.4212551118083,16,0,97.3828125,4,5,-9999,1444800861.883613,78.56064605712891,696.6072998046875,-453.0068969726562,13.858717918396,0.1502943634986877,-1,46387.26918045834,0.0396575927734375,-0.8096160888671875,-0.646881103515625,46387.19589783334,-0.1342049431284721,0.129229891896095,0.05353273370390078,46387.19589783334,-0.4605949958955797,0.01177046475761513,0.9253294243643718,-0.09840347617864609,0.1176537275314331,0.0424584299325943,-0.01104789786040783,-0.01801451668143272,0.0140359066426754,XArbitraryZVertical,0.4357450050364747,-0.09675427150195737,-0.2017076570302526,0.8718250527641705,0.007080612238496542,-0.7988190054893494,-0.6015297770500183,0,0,0,-1,10.0.0.62,0.0.0.0,1,2,0.54,0
2015-10-13 22:34:22.135,35,2D29A3A2-A889-408C-8DE8-A171CBC55D6F,my_iOS_device_1,1444800861.981907,37.75645382705867,-122.4212551118083,16,0,97.3828125,4,5,-9999,1444800861.991407,76.36314392089844,696.3326416015625,-454.2893676757812,14.00652408599854,0.2981007099151611,-1,46387.377752,0.0298614501953125,-0.8023834228515625,-0.6058807373046875,46387.294762625,0.01167343400614432,0.07791317453524918,-0.007707188194689315,46387.294762625,-0.4662164454775014,0.02198470879260387,0.9209748618592541,0.04745285958051682,0.06634759157896042,-0.01879235729575157,0.02924085408449173,-0.003292420180514455,-0.03127137944102287,XArbitraryZVertical,0.4346141780619049,-0.09306711714955314,-0.2021754918365408,0.8726821290903656,0.01330065075308084,-0.7961918115615845,-0.6048980355262756,0,0,0,-1,10.0.0.62,0.0.0.0,1,2,0.54,0
2015-10-13 22:34:22.160,36,2D29A3A2-A889-408C-8DE8-A171CBC55D6F,my_iOS_device_1,1444800861.981907,37.75645382705867,-122.4212551118083,16,0,97.3828125,4,5,-9999,1444800862.095661,76.43180084228516,696.5386352539062,-455.6431579589844,13.84717464447021,0.1387512534856796,-1,46387.48584629167,0.0528106689453125,-0.8256988525390625,-0.6131439208984375,46387.39362870833,-0.04970923332687402,0.1653356983748443,0.083049080697467,46387.39362870833,-0.463090001294908,0.03036827668452483,0.9230828446921454,-0.01392431929707527,0.1537944972515106,0.07193706184625626,0.01054930314421654,-0.009846526198089123,0.0001963510731002316,XArbitraryZVertical,0.4365140914857287,-0.08895091384737669,-0.1988653381937924,0.8729236851667895,0.01832032576203346,-0.7974655032157898,-0.6030863523483276,0,0,0,-1,10.0.0.62,0.0.0.0,1,2,0.54,0
2015-10-13 22:34:22.393,37,2D29A3A2-A889-408C-8DE8-A171CBC55D6F,my_iOS_device_1,1444800861.981907,37.75645382705867,-122.4212551118083,16,0,97.3828125,4,5,-9999,1444800862.24827,78.35462188720703,696.2639770507812,-454.9307250976562,13.48402786254883,359.7756042480469,-1,46387.59383658334,0.05694580078125,-0.8061370849609375,-0.6398162841796875,46387.49249375,-0.0187441267003047,0.1858649419538291,0.07503136791967444,46387.49249375,-0.4573582114382871,0.04621922580379965,0.9198032070364064,0.01702565513551235,0.1743560135364532,0.06388314813375473,0.02481286600232124,-0.03021646849811077,-0.007814341224730015,XArbitraryZVertical,0.436883359179403,-0.0804247500670577,-0.1930933827985402,0.8748598376701162,0.02799780294299126,-0.7954823970794678,-0.6053295731544495,0,0,0,-1,10.0.0.62,0.0.0.0,1,2,0.54,0
2015-10-13 22:34:22.989,38,2D29A3A2-A889-408C-8DE8-A171CBC55D6F,my_iOS_device_1,1444800861.981907,37.75645382705867,-122.4212551118083,16,0,97.3828125,4,5,-9999,1444800862.467733,77.11852264404297,696.1265869140625,-455.78564453125,13.3303108215332,359.6218872070312,-1,46387.70352041667,0.0626220703125,-0.8279876708984375,-0.6522369384765625,46387.69022558333,-0.1117497014491419,0.224476250386125,0.004460794825882724,46387.59135995834,-0.45358235916005,0.0609057232898569,0.9178993414301782,0.001448793453164399,0.2050583511590958,0.0443539060652256,0.01613909192383289,-0.01194716989994049,-0.03743511810898781,XArbitraryZVertical,0.4376003220277405,-0.07296645254889059,-0.188347167878601,0.8761890203122568,0.03697675466537476,-0.7943272590637207,-0.6063637137413025,0,0,0,-1,10.0.0.62,0.0.0.0,1,2,0.54,0
2015-10-13 22:34:23.025,39,2D29A3A2-A889-408C-8DE8-A171CBC55D6F,my_iOS_device_1,1444800861.981907,37.75645382705867,-122.4212551118083,16,0,97.3828125,4,5,-9999,1444800862.467733,77.11852264404297,696.1265869140625,-455.78564453125,13.3303108215332,359.6218872070312,-1,46387.811782875,0.12261962890625,-0.7971649169921875,-0.6842498779296875,46387.78909154167,-0.1498986851162,0.2309711676526102,-0.01430650137590567,46387.78909154167,-0.4556843904886134,0.1002469124609049,0.9096786497293803,-0.1141322553157806,0.2195318341255188,-0.0255583394318819,0.03118760325014591,0.004058668855577707,-0.01695181988179684,XArbitraryZVertical,0.4375931549122999,-0.05526133340024578,-0.181214658186706,0.8789878630919747,0.06144850701093674,-0.7893064618110657,-0.6109168529510498,0,0,0,-1,10.0.0.62,0.0.0.0,1,2,0.54,0
2015-10-13 22:34:23.052,40,2D29A3A2-A889-408C-8DE8-A171CBC55D6F,my_iOS_device_1,1444800861.981907,37.75645382705867,-122.4212551118083,16,0,97.3828125,4,5,-9999,1444800862.626794,78.49197387695312,695.9893798828125,-454.6456909179688,11.59169387817383,357.8832702636719,-1,46387.92104029167,0.07208251953125,-0.8253173828125,-0.6187744140625,46387.88795904167,0.1942456435881995,0.2805118228824822,0.1580721928177622,46387.88795904167,-0.443491283850017,0.1117400337947351,0.9145270449706221,0.2299940586090088,0.2690815031528473,0.1468084454536438,0.003144145710393786,-0.02622260898351669,-0.02036413922905922,XArbitraryZVertical,0.4410319608247574,-0.04807034226195576,-0.1729800929357762,0.8793508623830493,0.06803810596466064,-0.7922741174697876,-0.6063600778579712,0,0,0,-1,10.0.0.62,0.0.0.0,1,2,0.54,0
2015-10-13 22:34:23.065,41,2D29A3A2-A889-408C-8DE8-A171CBC55D6F,my_iOS_device_1,1444800861.981907,37.75645382705867,-122.4212551118083,16,0,97.3828125,4,5,-9999,1444800862.626794,78.49197387695312,695.9893798828125,-454.6456909179688,11.59169387817383,357.8832702636719,-1,46388.03058775,0.02557373046875,-0.8154144287109375,-0.535125732421875,46387.986821375,0.06227189682099581,0.1931750528299876,0.1054614454832468,46387.986821375,-0.4186536496071875,0.1092476886280846,0.9360202475995435,0.09802920371294022,0.1817377954721451,0.0942072719335556,-0.06499048322439194,-0.01100338436663151,0.04223606362938881,XArbitraryZVertical,0.4507311196058132,-0.0459396248891099,-0.161087938829388,0.8768019643269694,0.06465478986501694,-0.8052045106887817,-0.5894620418548584,0,0,0,-1,10.0.0.62,0.0.0.0,1,2,0.54,0
2015-10-13 22:34:23.108,42,2D29A3A2-A889-408C-8DE8-A171CBC55D6F,my_iOS_device_1,1444800861.981907,37.75645382705867,-122.4212551118083,16,0,97.3828125,4,5,-9999,1444800862.780576,78.56064605712891,695.3712768554688,-454.4319458007812,11.21159744262695,357.503173828125,-1,46388.13857741667,0.090179443359375,-0.8183135986328125,-0.574493408203125,46388.08569108334,-0.04305239586611196,0.03192544251565189,-0.002660231612880151,46388.08569108334,-0.4183145033957814,0.1132717726794357,0.941667146518366,-0.007265874650329351,0.02046973071992397,-0.01388885080814362,-0.0128766568377614,-0.01070414390414953,0.007765632122755051,XArbitraryZVertical,0.4535060044928423,-0.0446916025649287,-0.1596278186998872,0.87570196074134,0.06651130318641663,-0.8085402250289917,-0.5846699476242065,0,0,0,-1,10.0.0.62,0.0.0.0,1,2,0.54,0
2015-10-13 22:34:23.114,43,2D29A3A2-A889-408C-8DE8-A171CBC55D6F,my_iOS_device_1,1444800861.981907,37.75645382705867,-122.4212551118083,16,0,97.3828125,4,5,-9999,1444800862.780576,78.56064605712891,695.3712768554688,-454.4319458007812,11.21159744262695,357.503173828125,-1,46388.24890654167,0.065216064453125,-0.8251495361328125,-0.594329833984375,46388.18455566667,-0.02651043707119378,0.03318032402129723,0.05757967329638519,46388.18455566667,-0.4171123467586207,0.1108060707034155,0.9401747121738631,0.009268562309443951,0.02172809652984142,0.04634649306535721,0.007871500216424465,-0.01167480647563934,-0.03378122299909592,XArbitraryZVertical,0.4526904347110213,-0.04534286498616868,-0.1597664039638352,0.8760651180594128,0.06520283967256546,-0.8076611161231995,-0.5860307812690735,0,0,0,-1,10.0.0.62,0.0.0.0,1,2,0.54,0
2015-10-13 22:34:23.134,44,2D29A3A2-A889-408C-8DE8-A171CBC55D6F,my_iOS_device_1,1444800861.981907,37.75645382705867,-122.4212551118083,16,0,97.3828125,4,5,-9999,1444800862.93057,79.38468933105469,695.9205932617188,-453.8619995117188,11.15956497192383,357.4511413574219,-1,46388.35824375,0.044921875,-0.8223724365234375,-0.57110595703125,46388.28342,0.03307752600322017,0.05285123078094951,0.05356815374639884,46388.28342,-0.40889091279611,0.1064759325778603,0.9466984369972512,0.06885261833667755,0.0413985401391983,0.04233573749661446,-0.001617516158148646,-0.0150016974657774,-0.03196577727794647,XArbitraryZVertical,0.4553589058043621,-0.04604595796339039,-0.1566920407561707,0.8752003433634779,0.06210335716605186,-0.8114905953407288,-0.5810560584068298,0,0,0,-1,10.0.0.62,0.0.0.0,1,2,0.54,0
2015-10-13 22:34:23.189,45,2D29A3A2-A889-408C-8DE8-A171CBC55D6F,my_iOS_device_1,1444800861.981907,37.75645382705867,-122.4212551118083,16,0,97.3828125,4,5,-9999,1444800862.93057,79.38468933105469,695.9205932617188,-453.8619995117188,11.15956497192383,357.4511413574219,-1,46388.468041,0.047576904296875,-0.8409271240234375,-0.5541229248046875,46388.38228616667,0.02936374786310467,0.09001830695409535,0.05509813979264936,46388.38228616667,-0.4007622280776415,0.1033316007567766,0.9565740392102885,0.06513820588588715,0.07855942100286484,0.04387430846691132,0.003846986219286919,-0.01303932256996632,-0.02890854515135288,XArbitraryZVertical,0.4595734577152943,-0.0465587057721922,-0.1531778995282814,0.8735908968026891,0.05944646894931793,-0.8172218799591064,-0.5732490420341492,0,0,0,-1,10.0.0.62,0.0.0.0,1,2,0.54,0
2015-10-13 22:34:23.198,46,2D29A3A2-A889-408C-8DE8-A171CBC55D6F,my_iOS_device_1,1444800861.981907,37.75645382705867,-122.4212551118083,16,0,97.3828125,4,5,-9999,1444800862.93057,79.38468933105469,695.9205932617188,-453.8619995117188,11.15956497192383,357.4511413574219,-1,46388.57786395834,0.0572052001953125,-0.8457489013671875,-0.5618133544921875,46388.48115325,0.04263534483940555,0.04348249638215975,0.06094404470148229,46388.48115325,-0.3931314632829032,0.09757415765691063,0.9692903674198697,0.07838945835828781,0.03202471509575844,0.04971751943230629,-0.001905498211272061,-0.03319692239165306,0.006399864330887794,XArbitraryZVertical,0.4648066894909418,-0.0485613311639825,-0.1503226919976851,0.8712058463937314,0.05512815341353416,-0.8244843482971191,-0.5631930828094482,0,0,0,-1,10.0.0.62,0.0.0.0,1,2,0.54,0
2015-10-13 22:34:23.633,47,2D29A3A2-A889-408C-8DE8-A171CBC55D6F,my_iOS_device_1,1444800863.112391,37.75645382705867,-122.4212551118083,16,0,97.3828125,4,5,-9999,1444800863.100922,78.90399169921875,695.9893798828125,-453.9331970214844,10.95357131958008,357.2451477050781,-1,46388.68733504167,0.0753021240234375,-0.8418121337890625,-0.5233612060546875,46388.67888470834,0.1117028298139565,0.05549761395616124,0.09250197098670325,46388.58002191667,-0.3872273044405682,0.09627167289739129,0.9801520342783065,0.123804584145546,0.01075868122279644,0.04392961785197258,0.003674642415717244,-0.01516685355454683,-0.00749580841511488,XArbitraryZVertical,0.469531568831858,-0.0487989018676985,-0.1473375897535743,0.8691665017086211,0.05353055894374847,-0.8305820226669312,-0.5543175339698792,0,0,0,-1,10.0.0.62,0.0.0.0,1,2,0.54,0
2015-10-13 22:34:23.851,48,2D29A3A2-A889-408C-8DE8-A171CBC55D6F,my_iOS_device_1,1444800863.112391,37.75645382705867,-122.4212551118083,16,0,97.3828125,4,5,-9999,1444800863.233904,78.69798278808594,696.332763671875,-453.719482421875,10.73109817504883,357.0226745605469,-1,46388.79751054167,0.1499786376953125,-0.8021087646484375,-0.5847320556640625,46388.777753625,-0.152756789598073,0.2283719224286928,0.1730841655664299,46388.67888470834,-0.3883798864747379,0.09919880641891306,0.9927115321716411,0.1474301218986511,0.04405934736132622,0.08125013113021851,0.03266128525137901,-0.01299894973635674,0.01671132259070873,XArbitraryZVertical,0.4751114392095918,-0.04900817766032494,-0.1463090287186881,0.8662915138508471,0.05411544814705849,-0.8375107049942017,-0.543734610080719,0,0,0,-1,10.0.0.62,0.0.0.0,1,2,0.54,0
2015-10-13 22:34:23.870,49,2D29A3A2-A889-408C-8DE8-A171CBC55D6F,my_iOS_device_1,1444800863.112391,37.75645382705867,-122.4212551118083,16,0,97.3828125,4,5,-9999,1444800863.376053,79.17868804931641,696.6760864257812,-453.2206420898438,10.7171516418457,357.0087280273438,-1,46388.906772875,0.1805877685546875,-0.703155517578125,-0.5846405029296875,46388.87661783334,-0.6800243359140651,1.072945258931593,0.3977564246087846,46388.87661783334,-0.3067217319316407,0.09578797373369663,0.9667746788367614,-0.6445648074150085,1.06161892414093,0.3864981532096863,0.05044654384255409,0.06339933723211288,0.04916392639279366,XArbitraryZVertical,0.465274915135762,-0.02902590286096653,-0.1131123355528275,0.8774293987861893,0.05432030186057091,-0.8230581283569336,-0.5653535127639771,0,0,0,-1,10.0.0.62,0.0.0.0,1,2,0.54,0
2015-10-13 22:34:23.886,50,2D29A3A2-A889-408C-8DE8-A171CBC55D6F,my_iOS_device_1,1444800863.112391,37.75645382705867,-122.4212551118083,16,0,97.3828125,4,5,-9999,1444800863.376053,79.17868804931641,696.6760864257812,-453.2206420898438,10.7171516418457,357.0087280273438,-1,46389.01395270834,0.1502532958984375,-0.716278076171875,-0.6947479248046875,46388.975484625,-1.088449650165816,0.9330459447603133,0.7603892165488412,46388.975484625,-0.2046013049234749,0.106539177232741,0.8725490264299437,-1.052991151809692,0.9217202663421631,0.7491303682327271,0.06809735298156738,0.0320071205496788,-0.01622544787824154,XArbitraryZVertical,0.4246884955417474,0.00491262787230074,-0.07004381123184841,0.9026125483007572,0.06836199760437012,-0.7659701108932495,-0.6392310857772827,0,0,0,-1,10.0.0.62,0.0.0.0,1,2,0.54,0
2015-10-13 22:34:23.938,51,2D29A3A2-A889-408C-8DE8-A171CBC55D6F,my_iOS_device_1,1444800863.112391,37.75645382705867,-122.4212551118083,16,0,97.3828125,4,5,-9999,1444800863.619221,74.98970794677734,700.1783447265625,-461.9844360351562,10.58095169067383,356.8725280761719,-1,46389.12343683334,-0.0172271728515625,-0.7307586669921875,-0.875274658203125,46389.074352125,-0.9906985886705667,0.503877268777935,0.9143369717863977,46389.074352125,-0.06239333814587875,0.06123381521496665,0.7773223265006035,-0.9552415609359741,0.4925518035888672,0.9030783176422119,-0.09209700673818588,-0.01057127397507429,-0.03494070842862129,XArbitraryZVertical,0.3794714985989365,0.0165006899919407,-0.01725691168081486,0.9248952956849232,0.04361983388662338,-0.701373279094696,-0.7114582061767578,0,0,0,-1,10.0.0.62,0.0.0.0,1,2,0.54,0
2015-10-13 22:34:23.959,52,2D29A3A2-A889-408C-8DE8-A171CBC55D6F,my_iOS_device_1,1444800863.112391,37.75645382705867,-122.4212551118083,16,0,97.3828125,4,5,-9999,1444800863.619221,74.98970794677734,700.1783447265625,-461.9844360351562,10.58095169067383,356.8725280761719,-1,46389.23300370834,-0.089691162109375,-0.7204437255859375,-0.78704833984375,46389.17321945834,-0.09828396002937428,-0.06544824905313332,0.7345429718535131,46389.17321945834,0.05514135743041738,-0.02750386031539191,0.7527114439808912,-0.06282765418291092,-0.076773501932621,0.7232845425605774,-0.2931921184062958,-0.1257517635822296,0.08406937122344971,XArbitraryZVertical,0.3677118398407597,-0.002653259965031468,0.02058312227605407,0.9297081790163212,-0.02007083036005497,-0.6836202144622803,-0.7295619249343872,0,0,0,-1,10.0.0.62,0.0.0.0,1,2,0.54,0
2015-10-13 22:34:23.982,53,2D29A3A2-A889-408C-8DE8-A171CBC55D6F,my_iOS_device_1,1444800863.112391,37.75645382705867,-122.4212551118083,16,0,97.3828125,4,5,-9999,1444800863.828815,72.99821472167969,708.4876098632812,-465.3331604003906,8.276355743408203,354.5679321289062,-1,46389.34279541667,-0.0696868896484375,-0.69915771484375,-0.7154541015625,46389.27208058334,0.07009519883921257,0.2273210390625476,0.2639192640268525,46389.27208058334,0.09979363383821391,-0.04206057935183569,0.7385399905724039,0.1055508032441139,0.2159960120916367,0.2526610493659973,-0.1336107552051544,-0.04001729562878609,-0.03750789910554886,XArbitraryZVertical,0.361383934930556,-0.00158876556778878,0.03892317812988688,0.9316029806748907,-0.03109261952340603,-0.673209011554718,-0.7387982606887817,0,0,0,-1,10.0.0.62,0.0.0.0,1,2,0.54,0
2015-10-13 22:34:24.067,54,2D29A3A2-A889-408C-8DE8-A171CBC55D6F,my_iOS_device_1,1444800863.932016,37.75645382705867,-122.4212551118083,15,0,97.3828125,4,5,-9999,1444800863.977653,72.03681945800781,710.8225708007812,-467.0431518554688,7.246448516845703,353.5380249023438,-1,46389.4506835,-0.0446624755859375,-0.694580078125,-0.716156005859375,46389.37094841667,0.09172432794840012,0.1656086723865774,0.2880991688281179,46389.37094841667,0.1282208589717815,-0.05141291241560824,0.7583546196895461,0.1271792352199554,0.1542838662862778,0.2768411934375763,-0.01380922552198172,0.008482887409627438,-0.01794113405048847,XArbitraryZVertical,0.3708036298929541,-0.0001220351132129168,0.05000136519146548,0.9273642847579494,-0.03730771690607071,-0.6877278685569763,-0.7250093221664429,0,0,0,-1,10.0.0.62,0.0.0.0,1,2,0.54,0
2015-10-13 22:34:24.449,55,2D29A3A2-A889-408C-8DE8-A171CBC55D6F,my_iOS_device_1,1444800863.932016,37.75645382705867,-122.4212551118083,15,0,97.3828125,4,5,-9999,1444800864.085915,72.10549163818359,711.4405517578125,-466.9718627929688,6.652790069580078,352.9443664550781,-1,46389.55978558333,-0.071929931640625,-0.712493896484375,-0.6711578369140625,46389.46981529167,0.1017913431850086,0.5517715578219201,0.4817408074810874,46389.46981529167,0.1786630630846601,-0.05600219515831174,0.772926282394747,0.137247309088707,0.5404431819915771,0.4704878330230713,-0.01232931390404701,-0.01258236542344093,-0.01503387372940779,XArbitraryZVertical,0.3775782109927316,0.007783261709481517,0.07209017825246797,0.9231344006265884,-0.04006936773657799,-0.6982330679893494,-0.714748203754425,0,0,0,-1,10.0.0.62,0.0.0.0,1,2,0.54,0
2015-10-13 22:34:24.470,56,2D29A3A2-A889-408C-8DE8-A171CBC55D6F,my_iOS_device_1,1444800863.932016,37.75645382705867,-122.4212551118083,15,0,97.3828125,4,5,-9999,1444800864.340887,73.20423889160156,712.4019775390625,-468.1117553710938,5.525684356689453,351.8172607421875,-1,46389.66903133334,-0.0520782470703125,-0.70660400390625,-0.7867279052734375,46389.56868,-0.1486174383157629,0.08064344728479841,0.1582700656867551,46389.56868,0.2161480000476872,-0.06666128936885414,0.7837759627440666,-0.1131314188241959,0.06929913908243179,0.1470393091440201,-0.02475183829665184,-0.006535114254802465,0.03552202507853508,XArbitraryZVertical,0.3828167332353689,0.01055549548004528,0.08697769081793755,0.9196601609127921,-0.04717809334397316,-0.7059587836265564,-0.7066798806190491,0,0,0,-1,10.0.0.62,0.0.0.0,1,2,0.54,0
2015-10-13 22:34:24.484,57,2D29A3A2-A889-408C-8DE8-A171CBC55D6F,my_iOS_device_1,1444800863.932016,37.75645382705867,-122.4212551118083,15,0,97.3828125,4,5,-9999,1444800864.340887,73.20423889160156,712.4019775390625,-468.1117553710938,5.525684356689453,351.8172607421875,-1,46389.77763245834,-0.1053314208984375,-0.715118408203125,-0.7313995361328125,46389.76641345834,0.2435516743260355,-0.2272882821811396,-0.2259087647364786,46389.66754545834,0.2299797392438909,-0.06167912088448898,0.7740553786886887,0.04442751035094261,0.07353525608778,0.1024119555950165,0.006281629204750061,-0.02102134935557842,-0.06580384075641632,XArbitraryZVertical,0.3780429055735398,0.01491991296191433,0.09463830327276736,0.9208173267789699,-0.04407764971256256,-0.6990408897399902,-0.7137219309806824,0,0,0,-1,10.0.0.62,0.0.0.0,1,2,0.54,0
2015-10-13 22:34:24.492,58,2D29A3A2-A889-408C-8DE8-A171CBC55D6F,my_iOS_device_1,1444800863.932016,37.75645382705867,-122.4212551118083,15,0,97.3828125,4,5,-9999,1444800864.447092,73.89094543457031,710.7538452148438,-466.9717712402344,5.447956085205078,351.7395324707031,-1,46389.887069875,-0.0944671630859375,-0.8857574462890625,-0.6779937744140625,46389.86528041667,0.3440228885586918,0.1358590324815203,0.5652370329255787,46389.86528041667,0.2770405788162709,-0.098379729783847,0.8274887143203739,0.379291296005249,0.124523863196373,0.5540949106216431,-0.0005324861849658191,0.1273017376661301,-0.04999515414237976,XArbitraryZVertical,0.4039243438124286,0.01085578479618598,0.1066950712744489,0.9084841430525303,-0.06646885722875595,-0.7362342476844788,-0.6734545230865479,0,0,0,-1,10.0.0.62,0.0.0.0,1,2,0.54,0
2015-10-13 22:34:24.812,59,2D29A3A2-A889-408C-8DE8-A171CBC55D6F,my_iOS_device_1,1444800863.932016,37.75645382705867,-122.4212551118083,15,0,97.3828125,4,5,-9999,1444800864.659865,72.79219055175781,712.8140869140625,-465.8317260742188,4.763172149658203,351.0547485351562,-1,46389.99711600001,-0.1675262451171875,-0.7534332275390625,-0.6639862060546875,46389.964143,0.1511125539410581,-0.2194146464183203,-0.01007473840376976,46389.964143,0.3167498217705242,-0.1359150679744383,0.8547076788469687,0.1863844245672226,-0.2307499051094055,-0.02121656201779842,-0.1347788423299789,0.03356911987066269,-0.06575553119182587,XArbitraryZVertical,0.4180787327549596,0.004190952393658538,0.1154064401522739,0.9010404889389899,-0.08894552290439606,-0.7543790340423584,-0.6503852009773254,0,0,0,-1,10.0.0.62,0.0.0.0,1,2,0.54,0
2015-10-13 22:34:24.818,60,2D29A3A2-A889-408C-8DE8-A171CBC55D6F,my_iOS_device_1,1444800863.932016,37.75645382705867,-122.4212551118083,15,0,97.3828125,4,5,-9999,1444800864.659865,72.79219055175781,712.8140869140625,-465.8317260742188,4.763172149658203,351.0547485351562,-1,46390.10576620833,-0.0682830810546875,-0.758514404296875,-0.7058258056640625,46390.06301187501,-0.2069260188025027,-0.09879155853314339,-0.116087191916554,46390.06301187501,0.2969785293772357,-0.138408352691835,0.86116006991181,-0.1716825366020203,-0.1101267039775848,-0.127226933836937,0.0105934701859951,0.00502836937084794,0.03250344470143318,XArbitraryZVertical,0.4211130977781383,-0.0005420249245097226,0.1055735849128801,0.9008427627823391,-0.0898934006690979,-0.7585989236831665,-0.6453269124031067,0,0,0,-1,10.0.0.62,0.0.0.0,1,2,0.54,0
2015-10-13 22:34:24.823,61,2D29A3A2-A889-408C-8DE8-A171CBC55D6F,my_iOS_device_1,1444800863.932016,37.75645382705867,-122.4212551118083,15,0,97.3828125,4,5,-9999,1444800864.806599,72.38016510009766,711.8525390625,-465.1192016601562,5.481220245361328,351.7727966308594,-1,46390.21408475,-0.087799072265625,-0.7420196533203125,-0.624847412109375,46390.161876375,-0.1056294909480308,-0.1684976695370954,0.02044775084962839,46390.161876375,0.2874009171225863,-0.1456746091771711,0.8474946087041858,-0.07040120661258698,-0.1798354238271713,0.009312139824032784,-0.03383729979395866,-0.0132386265322566,-0.04090199992060661,XArbitraryZVertical,0.4153619356611638,-0.006925374830647936,0.1005800306998158,0.9040520775993406,-0.09607603400945663,-0.7496245503425598,-0.6548529863357544,0,0,0,-1,10.0.0.62,0.0.0.0,1,2,0.54,0
2015-10-13 22:34:25.184,62,2D29A3A2-A889-408C-8DE8-A171CBC55D6F,my_iOS_device_1,1444800864.948529,37.75645382705867,-122.4212551118083,15,0,97.3828125,3,5,-9999,1444800864.915724,71.28141021728516,712.9512939453125,-464.5492248535156,5.636920928955078,351.9284973144531,-1,46390.32345179167,-0.15289306640625,-0.73333740234375,-0.670928955078125,46390.26074454167,-0.3198331300613931,-0.04067366038045318,0.10365129489032,46390.26074454167,0.2920849973315491,-0.1586174402380206,0.8341949710301052,-0.2845929563045502,-0.05201069638133049,0.09251431375741959,-0.01904372870922089,0.01356784347444773,0.02996410988271236,XArbitraryZVertical,0.410076984722814,-0.01289474763196102,0.1008764305602177,0.9063633586159453,-0.1061088591814041,-0.7407559752464294,-0.6633411645889282,0,0,0,-1,10.0.0.62,0.0.0.0,1,2,0.54,0
2015-10-13 22:34:25.324,63,2D29A3A2-A889-408C-8DE8-A171CBC55D6F,my_iOS_device_1,1444800864.948529,37.75645382705867,-122.4212551118083,15,0,97.3828125,3,5,-9999,1444800865.066912,72.92952728271484,714.3245849609375,-466.11669921875,5.359455108642578,351.6510314941406,-1,46390.43392887501,-0.131317138671875,-0.7045135498046875,-0.7063446044921875,46390.35960841667,-0.4488771333134006,0.08005755184498099,0.01749856625847464,46390.35960841667,0.2948537966112659,-0.159783527556414,0.7952829331479985,-0.4136240184307098,0.06870562583208084,0.006377802696079016,-0.03052042424678802,-0.01706316694617271,-0.05714134126901627,XArbitraryZVertical,0.3926308466866235,-0.01607956153272727,0.1044308342614062,0.9136064069316286,-0.111386314034462,-0.7140617370605469,-0.6911649107933044,0,0,0,-1,10.0.0.62,0.0.0.0,1,2,0.54,0
2015-10-13 22:34:25.330,64,2D29A3A2-A889-408C-8DE8-A171CBC55D6F,my_iOS_device_1,1444800864.948529,37.75645382705867,-122.4212551118083,15,0,97.3828125,3,5,-9999,1444800865.066912,72.92952728271484,714.3245849609375,-466.11669921875,5.359455108642578,351.6510314941406,-1,46390.54346254167,-0.1187744140625,-0.658721923828125,-0.64202880859375,46390.458477,-0.4379736191783982,0.07198124952320668,-0.03635507835678069,46390.458477,0.2853026908948718,-0.1452912420213415,0.7593823523110752,-0.4027313590049744,0.06061996519565582,-0.04746350646018982,-0.001166869304142892,-0.00668629165738821,-0.002274538390338421,XArbitraryZVertical,0.3754852210209637,-0.01417439059208876,0.1050664417618465,0.9207447954029822,-0.1050037816166878,-0.688473641872406,-0.7176198959350586,0,0,0,-1,10.0.0.62,0.0.0.0,1,2,0.54,0
2015-10-13 22:34:25.547,65,2D29A3A2-A889-408C-8DE8-A171CBC55D6F,my_iOS_device_1,1444800864.948529,37.75645382705867,-122.4212551118083,15,0,97.3828125,3,5,-9999,1444800865.276102,72.10546875,719.955810546875,-469.67919921875,5.113880157470703,351.4054565429688,-1,46390.65206508333,-0.004364013671875,-0.4922943115234375,-0.9439697265625,46390.5573445,-1.049491864475701,0.1650262390561771,0.11901160910957,46390.5573445,0.280553578006652,-0.1357720588983131,0.6987680484334793,-1.014244318008423,0.1536659598350525,0.1079016923904419,-0.03035463392734528,0.0008951893541961908,0.1053604483604431,XArbitraryZVertical,0.3470872189243444,-0.01535772355130681,0.1080746166638873,0.9314582545770007,-0.1036327928304672,-0.6432749629020691,-0.7585892081260681,0,0,0,-1,10.0.0.62,0.0.0.0,1,2,0.54,0
2015-10-13 22:34:25.870,66,2D29A3A2-A889-408C-8DE8-A171CBC55D6F,my_iOS_device_1,1444800864.948529,37.75645382705867,-122.4212551118083,15,0,97.3828125,3,5,-9999,1444800865.385649,73.41024017333984,726.0675659179688,-470.0354614257812,4.320362091064453,350.6119384765625,-1,46390.76197491667,-0.1214141845703125,-0.3897705078125,-1.221511840820312,46390.656209,-2.753607899652727,0.3172834196337513,0.1370542591787478,46390.656209,0.2618768581589855,-0.09030799356957973,0.5180286150059723,-2.718360900878906,0.3059233725070953,0.1259445399045944,0.07398869842290878,0.002874056110158563,-0.07871303707361221,XArbitraryZVertical,0.2593734507762467,-0.009852308171053387,0.114618399443012,0.9589009164482217,-0.07835271209478378,-0.4951683580875397,-0.865256667137146,0,0,0,-1,10.0.0.62,0.0.0.0,5,2,0.54,0
2015-10-13 22:34:26.182,67,2D29A3A2-A889-408C-8DE8-A171CBC55D6F,my_iOS_device_1,1444800864.948529,37.75645382705867,-122.4212551118083,15,0,97.3828125,3,5,-9999,1444800865.893884,74.85234069824219,708.1441650390625,-465.4041137695312,7.445056915283203,353.7366333007812,-1,46390.87155675,-0.0351104736328125,-0.390380859375,-0.9819793701171875,46390.85393875001,0.1450759666981755,0.112156099831488,0.02604438388042991,46390.75507333333,0.2693777452876264,-0.06388589016956465,0.3751038968789813,-0.311500608921051,0.2348192483186722,-0.01047931332141161,-0.06381127238273621,-0.02073101513087749,-0.3116324543952942,XArbitraryZVertical,0.1888848183856762,-0.006068574519597402,0.1259589331636362,0.9738685973697794,-0.05940344929695129,-0.366369217634201,-0.9285714030265808,0,0,0,-1,10.0.0.62,0.0.0.0,1,2,0.54,0
2015-10-13 22:34:26.464,68,2D29A3A2-A889-408C-8DE8-A171CBC55D6F,my_iOS_device_1,1444800865.952177,37.75645382705867,-122.4212551118083,16,0,97.3828125,3,5,-9999,1444800866.153406,81.10148620605469,703.5430908203125,-463.0527954101562,9.527301788330078,355.8188781738281,-1,46390.98185666667,-0.183685302734375,-0.3700408935546875,-1.041030883789062,46390.95280575,0.9636712320317885,0.03029185950299729,0.04842772021032789,46390.95280575,0.2762162329224181,-0.05780672041506623,0.4391867063923204,0.9990021586418152,0.01891228556632996,0.0372968465089798,-0.04730251803994179,0.002947025699540973,-0.1180510073900223,XArbitraryZVertical,0.219551504326846,0.002039614376201607,0.1280721123428522,0.9671558876215601,-0.05229159817099571,-0.4252035021781921,-0.9035859704017639,0,0,0,-1,10.0.0.62,0.0.0.0,1,2,0.54,0
2015-10-13 22:34:26.705,69,2D29A3A2-A889-408C-8DE8-A171CBC55D6F,my_iOS_device_1,1444800865.952177,37.75645382705867,-122.4212551118083,16,0,97.3828125,3,5,-9999,1444800866.365495,-19.33524322509766,-12.41497802734375,-22.88632202148438,84.37898254394531,70.67056274414062,25,46391.09162441667,0.0050506591796875,-0.5619659423828125,-0.8310546875,46391.05167454167,1.517374646908452,-0.326415132695524,-0.9223749245884748,46391.05167454167,0.2376405985190952,-0.0332308512271884,0.5806547466447205,1.552704572677612,-0.3377948403358459,-0.9335051774978638,-0.05380942299962044,0.03584565967321396,-0.08548527210950851,XArbitraryZVertical,0.286095358433797,0.01812244053025181,0.1088416415398865,0.9518269381031198,-0.02777932211756706,-0.5485714673995972,-0.8356420397758484,0,0,0,-1,10.0.0.62,0.0.0.0,1,2,0.54,0
2015-10-13 22:34:26.814,70,2D29A3A2-A889-408C-8DE8-A171CBC55D6F,my_iOS_device_1,1444800865.952177,37.75645382705867,-122.4212551118083,16,0,97.3828125,3,5,-9999,1444800866.490498,-22.35610961914062,-10.2298583984375,-23.45501708984375,82.73919677734375,69.03076934814453,25,46391.20094595834,-0.0715484619140625,-0.6790771484375,-0.6941375732421875,46391.150538125,1.302908420111608,-0.2751455532859725,-0.6316163230958037,46391.150538125,0.139513976616168,-0.03151481693757076,0.728639737380852,1.338237643241882,-0.2865250408649445,-0.6427463293075562,0.0240885429084301,0.01789090782403946,0.09329032152891159,XArbitraryZVertical,0.3564293614443292,0.01014537072259339,0.0595169510440871,0.9323695159601144,-0.0235087089240551,-0.6658554077148438,-0.7457103729248047,0,0,0,-1,10.0.0.62,0.0.0.0,1,2,0.54,0
2015-10-13 22:34:26.819,71,2D29A3A2-A889-408C-8DE8-A171CBC55D6F,my_iOS_device_1,1444800865.952177,37.75645382705867,-122.4212551118083,16,0,97.3828125,3,5,-9999,1444800866.490498,-22.35610961914062,-10.2298583984375,-23.45501708984375,82.73919677734375,69.03076934814453,25,46391.31002570834,0.20599365234375,-0.8115386962890625,-0.649627685546875,46391.24940479167,0.8386443409680565,0.6860936800383557,-0.9453984848444279,46391.24940479167,0.03384622734988971,0.06224125315336374,0.8330496180057292,0.8739731311798096,0.6747140288352966,-0.9565280079841614,-0.06345953047275543,0.004130947403609753,0.09038715809583664,XArbitraryZVertical,0.4038495020463077,0.03529435267318432,0.0280550621389661,0.9137137417455761,0.04183782264590263,-0.7399860620498657,-0.6713197827339172,0,0,0,-1,10.0.0.62,0.0.0.0,1,2,0.54,0
2015-10-13 22:34:26.825,72,2D29A3A2-A889-408C-8DE8-A171CBC55D6F,my_iOS_device_1,1444800865.952177,37.75645382705867,-122.4212551118083,16,0,97.3828125,3,5,-9999,1444800866.490498,-22.35610961914062,-10.2298583984375,-23.45501708984375,82.73919677734375,69.03076934814453,25,46391.41981283334,0.296417236328125,-0.8451995849609375,-0.515594482421875,46391.348269625,0.6348070563978276,1.047111797409497,-0.5744225418413711,46391.348269625,-0.1043172436257787,0.2396838348423224,0.8851981453160199,0.6701355576515198,1.03573215007782,-0.5855517387390137,-0.001637296169064939,0.0168840829282999,-0.0183861218392849,XArbitraryZVertical,0.4302717843855703,0.08571946738729784,0.004361205190023924,0.8986096729736319,0.1503036767244339,-0.7740404605865479,-0.6150367259979248,0,0,0,-1,10.0.0.62,0.0.0.0,1,2,0.54,0
2015-10-13 22:34:26.968,73,2D29A3A2-A889-408C-8DE8-A171CBC55D6F,my_iOS_device_1,1444800865.952177,37.75645382705867,-122.4212551118083,16,0,97.3828125,3,5,-9999,1444800866.594268,-22.6307373046875,-9.13739013671875,-22.74417114257812,79.76826477050781,66.05983734130859,25,46391.52931366667,0.1921234130859375,-0.7995758056640625,-0.54693603515625,46391.44713845834,0.1193711358567307,0.3363601751542069,-0.02851233526260634,46391.44713845834,-0.1927453339786094,0.3700237805069037,0.9219911433909299,0.1546989381313324,0.3249807953834534,-0.03964132070541382,0.07685035467147827,-0.05831148102879524,0.04985066130757332,XArbitraryZVertical,0.4510727139948766,0.1219167390611458,-0.003255815740998558,0.8841148766364278,0.2185140252113342,-0.7968063354492188,-0.5633394122123718,0,0,0,-1,10.0.0.62,0.0.0.0,1,2,0.54,0
2015-10-13 22:34:26.983,74,2D29A3A2-A889-408C-8DE8-A171CBC55D6F,my_iOS_device_1,1444800865.952177,37.75645382705867,-122.4212551118083,16,0,97.3828125,3,5,-9999,1444800866.800545,-24.27848052978516,-7.63525390625,-22.31768798828125,79.05966186523438,65.35124206542969,25,46391.63991962501,0.229644775390625,-0.8007049560546875,-0.553314208984375,46391.54600420834,-0.2967419255137521,-0.05510932506922769,-0.04200444197716578,46391.54600420834,-0.187542658234146,0.3715581187975894,0.9138034066019366,-0.2614148259162903,-0.06648849695920944,-0.05313320457935333,-0.03903066739439964,-0.001395801198668778,-0.005552066490054131,XArbitraryZVertical,0.4471947838338771,0.1244392193442244,-0.001451971553749871,0.8857367542218015,0.2217394113540649,-0.7918323278427124,-0.5690634250640869,0,0,0,-1,10.0.0.62,0.0.0.0,1,2,0.54,0
2015-10-13 22:34:27.075,75,2D29A3A2-A889-408C-8DE8-A171CBC55D6F,my_iOS_device_1,1444800866.910866,37.75645382705867,-122.4212551118083,16,0,97.3828125,4,5,-9999,1444800866.904291,-23.72922515869141,-8.04486083984375,-23.170654296875,78.10604858398438,64.39762878417969,25,46391.74973133334,0.18389892578125,-0.7969207763671875,-0.629486083984375,46391.64487020834,-0.2583852152816679,-0.5275189487228955,0.07285583162518872,46391.64487020834,-0.1766298221079173,0.3647719591824207,0.9059826014362872,-0.223058819770813,-0.5388978719711304,0.06172728538513184,0.009569698944687843,-0.01367324218153954,0.02300865389406681,XArbitraryZVertical,0.443104599893097,0.124486474015026,0.001082249543869798,0.8877839039297802,0.2200750708580017,-0.7870317101478577,-0.5763228535652161,0,0,0,-1,10.0.0.62,0.0.0.0,1,2,0.54,0
2015-10-13 22:34:27.082,76,2D29A3A2-A889-408C-8DE8-A171CBC55D6F,my_iOS_device_1,1444800866.910866,37.75645382705867,-122.4212551118083,16,0,97.3828125,4,5,-9999,1444800866.904291,-23.72922515869141,-8.04486083984375,-23.170654296875,78.10604858398438,64.39762878417969,25,46391.85902716667,0.07391357421875,-0.760772705078125,-0.69122314453125,46391.84260058334,-0.3815934336369847,-0.5648332977043228,0.7191576239200164,46391.743733625,-0.1367574560636477,0.2704943714786062,0.875451538194108,-0.4178483188152313,-0.5804223418235779,0.2513807117938995,0.0165268462151289,-0.04411782324314117,-0.03054796159267426,XArbitraryZVertical,0.4273724481203336,0.09313995140278704,-0.004297975471286561,0.8992548401021587,0.171186774969101,-0.76783287525177,-0.6173554658889771,0,0,0,-1,10.0.0.62,0.0.0.0,1,2,0.54,0
2015-10-13 22:34:27.089,77,2D29A3A2-A889-408C-8DE8-A171CBC55D6F,my_iOS_device_1,1444800866.910866,37.75645382705867,-122.4212551118083,16,0,97.3828125,4,5,-9999,1444800866.904291,-23.72922515869141,-8.04486083984375,-23.170654296875,78.10604858398438,64.39762878417969,25,46391.96769487501,-0.0880279541015625,-0.7034912109375,-0.708740234375,46391.941465,-0.2227622399085499,-0.2299202842864649,0.6567938480414128,46391.941465,0.05436303194269244,0.02277780141743362,0.8202789320442307,-0.187371551990509,-0.2413041889667511,0.6456375122070312,-0.04980475082993507,0.01728580147027969,-0.02511463314294815,XArbitraryZVertical,0.3982802376371204,0.0212765260048676,0.02946194027357336,0.916543591884309,0.0155335096642375,-0.7313361167907715,-0.6818403005599976,0,0,0,-1,10.0.0.62,0.0.0.0,1,2,0.54,0
2015-10-13 22:34:27.093,78,2D29A3A2-A889-408C-8DE8-A171CBC55D6F,my_iOS_device_1,1444800866.910866,37.75645382705867,-122.4212551118083,16,0,97.3828125,4,5,-9999,1444800866.904291,-23.72922515869141,-8.04486083984375,-23.170654296875,78.10604858398438,64.39762878417969,25,46392.07702604167,0.006072998046875,-0.7342987060546875,-0.737579345703125,46392.04033212501,-0.07627985783870359,0.06783737086704339,-0.1203301401652682,46392.04033212501,0.08736420340705985,-0.004233435629207712,0.8091367934643739,-0.04088985919952393,0.05645369365811348,-0.1314862221479416,-0.05551957711577415,-0.02101347595453262,-0.04029051214456558,XArbitraryZVertical,0.3933306459028916,0.01524474910467035,0.03931049876652833,0.9184297933457233,-0.002921584295108914,-0.7236917018890381,-0.6901171803474426,0,0,0,-1,10.0.0.62,0.0.0.0,1,2,0.54,0
2015-10-13 22:34:27.100,79,2D29A3A2-A889-408C-8DE8-A171CBC55D6F,my_iOS_device_1,1444800866.910866,37.75645382705867,-122.4212551118083,16,0,97.3828125,4,5,-9999,1444800867.009103,-22.97402191162109,-8.659423828125,-22.38870239257812,78.23162841796875,64.52320098876953,25,46392.184055375,0.006805419921875,-0.7386932373046875,-0.6982574462890625,46392.13919895834,0.04528305959516233,0.02297482440800458,-0.01272618158505265,46392.13919895834,0.071721794515856,0.0133458934885764,0.8111706285528214,0.08067239075899124,0.01159136183559895,-0.0238820556551218,0.03144377842545509,-0.003086107084527612,-0.02703318744897842,XArbitraryZVertical,0.394074369054066,0.0202734020045825,0.03557490819420141,0.9181660017299514,0.009190377779304981,-0.7250938415527344,-0.6885887384414673,0,0,0,-1,10.0.0.62,0.0.0.0,1,2,0.54,0
2015-10-13 22:34:27.105,80,2D29A3A2-A889-408C-8DE8-A171CBC55D6F,my_iOS_device_1,1444800866.910866,37.75645382705867,-122.4212551118083,16,0,97.3828125,4,5,-9999,1444800867.009103,-22.97402191162109,-8.659423828125,-22.38870239257812,78.23162841796875,64.52320098876953,25,46392.29290275,0.008880615234375,-0.729949951171875,-0.71600341796875,46392.23806575,-0.03798173715060109,0.00884036323851803,-0.08735221638681703,46392.23806575,0.0651698011813254,0.01607478934779907,0.8158716839694531,-0.00259310775436461,-0.002542874542996287,-0.09850787371397018,-0.02924876660108566,-0.01287249661982059,-0.005543830804526806,XArbitraryZVertical,0.3962516364188958,0.02029809043315654,0.03309161026982375,0.9173208672486717,0.01101451460272074,-0.7283231616020203,-0.6851452589035034,0,0,0,-1,10.0.0.62,0.0.0.0,1,2,0.54,0
2015-10-13 22:34:27.110,81,2D29A3A2-A889-408C-8DE8-A171CBC55D6F,my_iOS_device_1,1444800866.910866,37.75645382705867,-122.4212551118083,16,0,97.3828125,4,5,-9999,1444800867.009103,-22.97402191162109,-8.659423828125,-22.38870239257812,78.23162841796875,64.52320098876953,25,46392.40092625,0.024078369140625,-0.73712158203125,-0.685302734375,46392.336932625,0.03823500377026762,0.01162096973266976,-0.03986965204735826,46392.336932625,0.053624679520369,0.02383972922040966,0.8094660741895765,0.07357341796159744,0.0002350942231714725,-0.05102045834064484,0.007816359400749207,-0.01877211034297943,-0.04264130443334579,XArbitraryZVertical,0.3933101464342522,0.02150860272286379,0.02933332883999985,0.9186860533065324,0.01644511520862579,-0.7239189147949219,-0.689689040184021,0,0,0,-1,10.0.0.62,0.0.0.0,1,2,0.54,0
2015-10-13 22:34:27.114,82,2D29A3A2-A889-408C-8DE8-A171CBC55D6F,my_iOS_device_1,1444800866.910866,37.75645382705867,-122.4212551118083,16,0,97.3828125,4,5,-9999,1444800867.009103,-22.97402191162109,-8.659423828125,-22.38870239257812,78.23162841796875,64.52320098876953,25,46392.510603875,0.002899169921875,-0.7447052001953125,-0.694305419921875,46392.43579716667,-0.01565432720359477,-0.01550891860807644,0.07807908947116113,46392.43579716667,0.05564809502604274,0.02132939619921646,0.8186007744310962,0.01969521678984165,-0.02689281105995178,0.06692700833082199,-0.01747123710811138,-0.009479266591370106,0.005323271732777357,XArbitraryZVertical,0.3975187552516939,0.02085082717737482,0.02976350272794642,0.9168741550150258,0.01457206811755896,-0.7301905155181885,-0.6830881834030151,0,0,0,-1,10.0.0.62,0.0.0.0,1,2,0.54,0
2015-10-13 22:34:27.280,83,2D29A3A2-A889-408C-8DE8-A171CBC55D6F,my_iOS_device_1,1444800866.910866,37.75645382705867,-122.4212551118083,16,0,97.3828125,4,5,-9999,1444800867.111306,-23.17999267578125,-8.72772216796875,-23.5970458984375,78.35539245605469,64.64696502685547,25,46392.61995208334,0.00592041015625,-0.729827880859375,-0.700347900390625,46392.53466191667,-0.09797237018183501,0.05278598333424257,-0.01413925485944869,46392.53466191667,0.05644567898309234,0.02280148394125069,0.8132706968069116,-0.06262227892875671,0.04139458015561104,-0.02528363279998302,-0.02318871393799782,-0.01368067972362041,-0.02325786650180817,XArbitraryZVertical,0.3950426018584274,0.02162721894479088,0.03042367645571923,0.9179041377118564,0.01566613093018532,-0.7265384197235107,-0.686947226524353,0,0,0,-1,10.0.0.62,0.0.0.0,1,2,0.54,0
2015-10-13 22:34:27.373,84,2D29A3A2-A889-408C-8DE8-A171CBC55D6F,my_iOS_device_1,1444800866.910866,37.75645382705867,-122.4212551118083,16,0,97.3828125,4,5,-9999,1444800867.216075,-23.72923278808594,-8.59112548828125,-23.17056274414062,78.40168762207031,64.69326019287109,25,46392.72800808334,-0.0178680419921875,-0.725921630859375,-0.7360076904296875,46392.633531,-0.1306954294439656,-0.1042952472419011,-0.06255605610930726,46392.633531,0.0513088965299071,0.02743686310281154,0.8029945689705215,-0.09535259753465652,-0.1157146990299225,-0.07367174327373505,-0.008952712640166283,0.009142576716840267,-0.03666302189230919,XArbitraryZVertical,0.3903077347639703,0.02264658645662645,0.02896870442987945,0.9199498999776703,0.01905403099954128,-0.7194392085075378,-0.6942940354347229,0,0,0,-1,10.0.0.62,0.0.0.0,1,2,0.54,0
2015-10-13 22:34:27.426,85,2D29A3A2-A889-408C-8DE8-A171CBC55D6F,my_iOS_device_1,1444800866.910866,37.75645382705867,-122.4212551118083,16,0,97.3828125,4,5,-9999,1444800867.421022,-26.06354522705078,-8.86431884765625,-23.59710693359375,81.30332946777344,67.59490203857422,25,46392.83690220834,-0.00628662109375,-0.7237548828125,-0.741790771484375,46392.73239725,-0.1431148148714411,-0.3104809072613618,-0.05238624285462167,46392.73239725,0.04455697404623234,0.01323788279185423,0.7914811802897684,-0.1077808886766434,-0.3218966424465179,-0.06350401043891907,-0.02717125415802002,-0.01452661585062742,-0.03327688574790955,XArbitraryZVertical,0.3852514907033505,0.01469308413155729,0.02310535641261564,0.9224053039172022,0.009303211234509945,-0.7113950252532959,-0.7027307748794556,0,0,0,-1,10.0.0.62,0.0.0.0,1,2,0.54,0
2015-10-13 22:34:27.544,86,2D29A3A2-A889-408C-8DE8-A171CBC55D6F,my_iOS_device_1,1444800866.910866,37.75645382705867,-122.4212551118083,16,0,97.3828125,4,5,-9999,1444800867.421022,-26.06354522705078,-8.86431884765625,-23.59710693359375,81.30332946777344,67.59490203857422,25,46392.94605029167,-0.0553741455078125,-0.6985321044921875,-0.6946563720703125,46392.93012633333,-0.01023293017252046,-0.1696918309698869,0.03749118287780849,46392.83126233333,0.03391491896813371,-0.01811589978860915,0.7909238069352313,0.07008673995733261,-0.2072451710700989,-0.2453442066907883,-0.01095869857817888,-0.00883018784224987,-0.011526208370924,XArbitraryZVertical,0.3853050311243281,-0.001825512581556064,0.01215838394968764,0.9227073610814088,-0.01273820083588362,-0.7110031843185425,-0.7030733823776245,0,0,0,-1,10.0.0.62,0.0.0.0,1,2,0.54,0
2015-10-13 22:34:27.698,87,2D29A3A2-A889-408C-8DE8-A171CBC55D6F,my_iOS_device_1,1444800866.910866,37.75645382705867,-122.4212551118083,16,0,97.3828125,4,5,-9999,1444800867.631515,-25.92622375488281,-9.0008544921875,-22.744140625,81.56356811523438,67.85514068603516,25,46393.055244125,-0.114715576171875,-0.7098541259765625,-0.764923095703125,46393.028992375,-0.1102583312386976,-0.2433165172017815,-0.396861602482518,46393.028992375,0.009346483497851842,-0.04721438482332014,0.7914365098774272,-0.07486774027347565,-0.2547657489776611,-0.4079757034778595,-0.1299911439418793,-0.01500051561743021,-0.02110359258949757,XArbitraryZVertical,0.3854612084911878,-0.01997967517998978,-0.00478806823431109,0.9224952811428301,-0.03317108377814293,-0.7113636136054993,-0.7020409107208252,0,0,0,-1,10.0.0.62,0.0.0.0,1,2,0.54,0
2015-10-13 22:34:27.849,88,2D29A3A2-A889-408C-8DE8-A171CBC55D6F,my_iOS_device_1,1444800866.910866,37.75645382705867,-122.4212551118083,16,0,97.3828125,4,5,-9999,1444800867.732937,-25.58293914794922,-9.751953125,-20.82492065429688,84.83055114746094,71.12213134765625,25,46393.16318466667,-0.0105743408203125,-0.6902008056640625,-0.6009979248046875,46393.12786433334,-0.08661132497155699,-0.744888553740144,-1.017543252458565,46393.12786433334,-0.09243101133229287,-0.02793310828019828,0.7933804377604674,-0.05122159048914909,-0.7563379406929016,-1.028656721115112,-0.07129049301147461,0.02330590784549713,0.009851661510765553,XArbitraryZVertical,0.3853224034756494,-0.03071588824437516,-0.04799759293501608,0.9210208524575014,-0.01959085091948509,-0.7127285003662109,-0.7011663317680359,0,0,0,-1,10.0.0.62,0.0.0.0,1,2,0.54,0
2015-10-13 22:34:27.863,89,2D29A3A2-A889-408C-8DE8-A171CBC55D6F,my_iOS_device_1,1444800866.910866,37.75645382705867,-122.4212551118083,16,0,97.3828125,4,5,-9999,1444800867.835451,-25.37696075439453,-11.5955810546875,-18.621337890625,91.93060302734375,78.22217559814453,25,46393.27301354167,0.0587921142578125,-0.6773223876953125,-0.8013916015625,46393.22672820833,-0.8681463068917363,-0.07350404503451399,-0.9530958193430838,46393.22672820833,-0.2349786018796407,0.02178691207609976,0.7621885383158411,-0.8327571749687195,-0.08495321869850159,-0.9642090797424316,-0.05070043355226517,-0.01968369446694851,0.1574200242757797,XArbitraryZVertical,0.3705357253970117,-0.03355347273033614,-0.1047795545353949,0.922279071443996,0.01575780473649502,-0.6905061006546021,-0.7231549024581909,0,0,0,-1,10.0.0.62,0.0.0.0,1,2,0.54,0
2015-10-13 22:34:28.018,90,2D29A3A2-A889-408C-8DE8-A171CBC55D6F,my_iOS_device_1,1444800867.919878,37.75645382705867,-122.4212551118083,16,0,97.3828125,4,5,-9999,1444800867.941235,-22.56207275390625,-12.0736083984375,-17.83944702148438,98.83537292480469,85.126953125,25,46393.379261875,0.20977783203125,-0.5399169921875,-0.9670867919921875,46393.32559129167,-0.8065018508235632,-0.2937527935062472,-0.9630099691331219,46393.32559129167,-0.361271145703342,0.09167700450420598,0.6735681507586903,-0.771113395690918,-0.3052017390727997,-0.9741230010986328,0.007058781571686268,-0.0895085334777832,-0.00569318188354373,XArbitraryZVertical,0.3325052657144543,-0.01676063152937812,-0.1544883063455757,0.9302111011514335,0.07155449688434601,-0.6237788200378418,-0.7783186435699463,0,0,0,-1,10.0.0.62,0.0.0.0,1,2,0.54,0
2015-10-13 22:34:28.121,91,2D29A3A2-A889-408C-8DE8-A171CBC55D6F,my_iOS_device_1,1444800867.919878,37.75645382705867,-122.4212551118083,16,0,97.3828125,4,5,-9999,1444800868.045161,-20.43373870849609,-13.234375,-14.07208251953125,109.5428466796875,95.83442687988281,25,46393.48842704167,0.0743865966796875,-0.6125946044921875,-0.7382965087890625,46393.424459125,0.4964105640296799,-1.085944947160597,-0.8839865227394187,46393.424459125,-0.4592819043766354,0.05127688108768766,0.6601247937819484,0.531798243522644,-1.09739363193512,-0.8950993418693542,0.1279703676700592,0.01401804573833942,-0.08476449549198151,XArbitraryZVertical,0.3210104761054362,-0.05013521106896248,-0.2071798268847697,0.9227758417804507,0.04048666730523109,-0.613215446472168,-0.7888774871826172,0,0,0,-1,10.0.0.62,0.0.0.0,1,2,0.54,0
2015-10-13 22:34:28.206,92,2D29A3A2-A889-408C-8DE8-A171CBC55D6F,my_iOS_device_1,1444800867.919878,37.75645382705867,-122.4212551118083,16,0,97.3828125,4,5,-9999,1444800868.149668,-19.1292724609375,-15.07794189453125,-9.5938720703125,118.3751220703125,104.6667022705078,25,46393.59766383334,-0.0387115478515625,-0.599151611328125,-0.7860107421875,46393.52332779167,0.02868677231400653,-0.8953401110986444,-0.6475950233201702,46393.52332779167,-0.5436838989241102,0.005071222734198935,0.6928511816175345,0.06407444924116135,-0.9067875742912292,-0.6587086319923401,0.03746465221047401,-0.02856380864977837,0.006890640128403902,XArbitraryZVertical,0.3277087240398558,-0.08887035117469849,-0.2517247506499478,0.9062801458602452,0.003901924006640911,-0.6387335658073425,-0.7694181203842163,0,0,0,-1,10.0.0.62,0.0.0.0,1,2,0.54,0
2015-10-13 22:34:28.297,93,2D29A3A2-A889-408C-8DE8-A171CBC55D6F,my_iOS_device_1,1444800867.919878,37.75645382705867,-122.4212551118083,16,0,97.3828125,4,5,-9999,1444800868.252214,-17.55017852783203,-17.60443115234375,-9.23846435546875,125.2994995117188,111.5910720825195,25,46393.70772545833,0.1331939697265625,-0.6753692626953125,-0.869171142578125,46393.62218950001,-0.3139773714565269,-1.338904504353446,-1.318616809485331,46393.62218950001,-0.6696109258021586,-0.007258369291274232,0.6882141827883034,-0.2785902917385101,-1.350351691246033,-1.329730272293091,-0.06394337862730026,0.0009578137542121112,-0.05577908083796501,XArbitraryZVertical,0.3174996039562157,-0.1140763456831522,-0.310477101761266,0.8886982379442073,-0.005606180988252163,-0.6351588368415833,-0.772361159324646,0,0,0,-1,10.0.0.62,0.0.0.0,1,2,0.54,0
2015-10-13 22:34:28.427,94,2D29A3A2-A889-408C-8DE8-A171CBC55D6F,my_iOS_device_1,1444800867.919878,37.75645382705867,-122.4212551118083,16,0,97.3828125,4,5,-9999,1444800868.407951,-13.43081665039062,-20.3355712890625,-8.669769287109375,137.5051422119141,123.7967147827148,25,46393.81741479167,0.2810516357421875,-0.70892333984375,-0.6823883056640625,46393.72106025001,0.5496380994726576,-0.3441054465524843,-1.263545567619692,46393.72106025001,-0.8517862821106185,0.04360572746047986,0.7021204214528857,0.5850245356559753,-0.3555522263050079,-1.274658918380737,0.1200847774744034,-0.03409361466765404,-0.1110305860638618,XArbitraryZVertical,0.3215566020393714,-0.1233977114045812,-0.3810169387925066,0.8580212403304376,0.03328130766749382,-0.6458380222320557,-0.7627487182617188,0,0,0,-1,10.0.0.62,0.0.0.0,1,2,0.54,0
2015-10-13 22:34:28.566,95,2D29A3A2-A889-408C-8DE8-A171CBC55D6F,my_iOS_device_1,1444800867.919878,37.75645382705867,-122.4212551118083,16,0,97.3828125,4,5,-9999,1444800868.512414,-10.34129333496094,-21.0865478515625,-7.034881591796875,145.6256561279297,131.917236328125,25,46393.92555320833,0.0461883544921875,-0.702545166015625,-0.441162109375,46393.819924125,0.159207498390463,-0.6914889780907472,-0.1896064169692814,46393.819924125,-0.9525541148769321,0.05177946936177681,0.748595363645592,0.1946436315774918,-0.7029387354850769,-0.2007421553134918,0.2431325912475586,-0.02831300906836987,0.04927536100149155,XArbitraryZVertical,0.3358662782454739,-0.1461574810149497,-0.4181767751463693,0.8312400487278457,0.0379190519452095,-0.6806103587150574,-0.7316636443138123,0,0,0,-1,10.0.0.62,0.0.0.0,1,2,0.54,0
2015-10-13 22:34:28.624,96,2D29A3A2-A889-408C-8DE8-A171CBC55D6F,my_iOS_device_1,1444800867.919878,37.75645382705867,-122.4212551118083,16,0,97.3828125,4,5,-9999,1444800868.616907,-9.723396301269531,-21.42803955078125,-5.2578125,146.8136138916016,133.1051940917969,25,46394.03488616667,0.1361083984375,-0.708251953125,-0.73626708984375,46394.01765516667,-0.02723827899711243,0.9099507454710372,0.5276829994460444,46393.91878870834,-0.9495697356501388,0.05672607856762298,0.8069684112983944,0.409799188375473,0.6101405620574951,0.1485904902219772,0.04942242801189423,0.03252682462334633,0.2448844462633133,XArbitraryZVertical,0.3609801389690562,-0.1562182070402945,-0.4103654933310719,0.8227328685193833,0.03921587765216827,-0.7221935987472534,-0.6905784010887146,0,0,0,-1,10.0.0.62,0.0.0.0,1,2,0.54,0
2015-10-13 22:34:28.734,97,2D29A3A2-A889-408C-8DE8-A171CBC55D6F,my_iOS_device_1,1444800867.919878,37.75645382705867,-122.4212551118083,16,0,97.3828125,4,5,-9999,1444800868.719292,-11.50845336914062,-20.88165283203125,-6.679534912109375,139.3002624511719,125.5918350219727,25,46394.14530141667,0.2452850341796875,-0.6870574951171875,-0.6134796142578125,46394.11652104167,-0.3285808152939764,0.9847149983333766,0.7049208973646708,46394.11652104167,-0.798095157571874,0.1031661163948321,0.8057691262890975,-0.2931445240974426,0.9732651710510254,0.6937864422798157,0.002134106587618589,-0.05034973844885826,0.07038986682891846,XArbitraryZVertical,0.3792176614133883,-0.1084287055740126,-0.338329438808826,0.854383035830535,0.07132170349359512,-0.7213635444641113,-0.688874363899231,0,0,0,-1,10.0.0.62,0.0.0.0,1,2,0.54,0
2015-10-13 22:34:28.868,98,2D29A3A2-A889-408C-8DE8-A171CBC55D6F,my_iOS_device_1,1444800867.919878,37.75645382705867,-122.4212551118083,16,0,97.3828125,4,5,-9999,1444800868.823689,-14.11738586425781,-19.1063232421875,-9.0963134765625,131.140625,117.4322052001953,25,46394.254287625,0.1013641357421875,-0.6232147216796875,-0.7662506103515625,46394.21538775,-0.3527559264052797,0.6228087167386936,0.8617350128834795,46394.21538775,-0.6730975238305598,0.1141325055025596,0.7658031577825202,-0.3173189759254456,0.6113602519035339,0.8505995869636536,-0.02484019659459591,-0.03089812397956848,-0.2367599308490753,XArbitraryZVertical,0.3695506239785123,-0.07324101237739288,-0.2857052142170662,0.8811586809378876,0.08209117501974106,-0.6931161880493164,-0.7161361575126648,0,0,0,-1,10.0.0.62,0.0.0.0,1,2,0.54,0
2015-10-13 22:34:28.975,99,2D29A3A2-A889-408C-8DE8-A171CBC55D6F,my_iOS_device_1,1444800867.919878,37.75645382705867,-122.4212551118083,16,0,97.3828125,4,5,-9999,1444800868.927734,-17.00093841552734,-17.467529296875,-12.081787109375,120.8493957519531,107.1409683227539,25,46394.363331125,0.0903778076171875,-0.71405029296875,-0.639617919921875,46394.31437045833,-0.08603208743446475,0.8110790257890824,0.3312604879828142,46394.31437045833,-0.5813394391006459,0.1343178656624312,0.7683651732981085,-0.05060645192861557,0.7996259927749634,0.3201303780078888,-0.07483696192502975,-0.02775663509964943,-0.003355882363393903,XArbitraryZVertical,0.3761007410539259,-0.04756691813605862,-0.2410064464304712,0.8934212408806232,0.09629081934690475,-0.6949606537818909,-0.7125712633132935,0,0,0,-1,10.0.0.62,0.0.0.0,1,2,0.54,0
2015-10-13 22:34:29.062,100,2D29A3A2-A889-408C-8DE8-A171CBC55D6F,my_iOS_device_1,1444800868.943137,37.75645382705867,-122.4212551118083,16,0,97.3828125,4,5,-9999,1444800869.03106,-17.55019378662109,-16.78472900390625,-13.076904296875,116.8863525390625,103.1779251098633,25,46394.47263091667,0.0183868408203125,-0.6190948486328125,-0.898834228515625,46394.413118625,-0.6948677305657307,0.312366158997029,0.2569021008706027,46394.413118625,-0.5438943976336527,0.1493329797454469,0.7374259917160207,-0.659442663192749,0.3009144067764282,0.245771199464798,0.03577838465571404,-0.02192056365311146,-0.01806683279573917,XArbitraryZVertical,0.3648932353604799,-0.02951413925232366,-0.2239590148479902,0.9032298722034525,0.1101261526346207,-0.6723848581314087,-0.7319636940956116,0,0,0,-1,10.0.0.62,0.0.0.0,1,2,0.54,0
2015-10-13 22:34:29.170,101,2D29A3A2-A889-408C-8DE8-A171CBC55D6F,my_iOS_device_1,1444800868.943137,37.75645382705867,-122.4212551118083,16,0,97.3828125,4,5,-9999,1444800869.03106,-17.55019378662109,-16.78472900390625,-13.076904296875,116.8863525390625,103.1779251098633,25,46394.58117220834,-0.0210723876953125,-0.6851959228515625,-0.80035400390625,46394.51198479167,-0.2886259420917356,0.5316412557742292,0.1706489710656614,46394.51198479167,-0.4802333215554421,0.1471490126148532,0.68890419037643,-0.2532015740871429,0.5201897025108337,0.159518301486969,-0.02908999100327492,-0.03465745970606804,-0.08370453119277954,XArbitraryZVertical,0.3435602336167081,-0.01288340053010408,-0.1991310289128243,0.9176857943719763,0.1131811812520027,-0.6356916427612305,-0.763600766658783,0,0,0,-1,10.0.0.62,0.0.0.0,1,2,0.54,0
2015-10-13 22:34:29.316,102,2D29A3A2-A889-408C-8DE8-A171CBC55D6F,my_iOS_device_1,1444800868.943137,37.75645382705867,-122.4212551118083,16,0,97.3828125,4,5,-9999,1444800869.239731,-22.01282501220703,-13.84857177734375,-17.83950805664062,105.2570648193359,91.54863739013672,25,46394.689676375,0.043853759765625,-0.656585693359375,-0.8568115234375,46394.61085283334,-0.3425411057281718,0.1021183793668704,-0.0765997034856221,46394.61085283334,-0.4436591494933744,0.1333332212041609,0.6725635600671009,-0.3071174621582031,0.09066708385944366,-0.08773016184568405,-0.02415413036942482,-0.03112045116722584,0.03663687407970428,XArbitraryZVertical,0.3350145582668083,-0.01109410025815621,-0.1857862560732399,0.9236480031608563,0.1039881110191345,-0.6229932904243469,-0.7752843499183655,0,0,0,-1,10.0.0.62,0.0.0.0,1,2,0.54,0
2015-10-13 22:34:29.400,103,2D29A3A2-A889-408C-8DE8-A171CBC55D6F,my_iOS_device_1,1444800868.943137,37.75645382705867,-122.4212551118083,16,0,97.3828125,4,5,-9999,1444800869.344408,-20.22777557373047,-12.6195068359375,-16.55996704101562,105.6327362060547,91.92430877685547,25,46394.79867533334,0.02508544921875,-0.6208648681640625,-0.8948211669921875,46394.70971775,-0.3094249638891455,0.4741356183561481,-0.01268463627204741,46394.70971775,-0.4211008149426237,0.1419133639777161,0.6338824758365352,-0.2740020155906677,0.4626845419406891,-0.02381487190723419,-0.01140669453889132,-0.06401831656694412,-0.07020943611860275,XArbitraryZVertical,0.3180913158388307,0.0009054803844951533,-0.1764809669318785,0.9314888959101849,0.1139610186219215,-0.592277467250824,-0.7976341843605042,0,0,0,-1,10.0.0.62,0.0.0.0,1,2,0.54,0
2015-10-13 22:34:29.497,104,2D29A3A2-A889-408C-8DE8-A171CBC55D6F,my_iOS_device_1,1444800868.943137,37.75645382705867,-122.4212551118083,16,0,97.3828125,4,5,-9999,1444800869.448099,-18.99196624755859,-12.6195068359375,-17.12860107421875,105.8077392578125,92.09931182861328,25,46394.90836875,0.1402435302734375,-0.613250732421875,-0.8345794677734375,46394.808586625,0.1017082525589982,0.0221857297770141,-0.1505096142702642,46394.808586625,-0.4069602549488375,0.1353658459697097,0.6225082915648733,0.1371744871139526,0.01073150616139174,-0.16165891289711,-0.08455272018909454,-0.03779009357094765,-0.08983466029167175,XArbitraryZVertical,0.3122579625832081,0.001307835992659214,-0.1716436331009432,0.9343616631606312,0.1096381694078445,-0.5830747485160828,-0.8049865365028381,0,0,0,-1,10.0.0.62,0.0.0.0,1,2,0.54,0
2015-10-13 22:34:29.619,105,2D29A3A2-A889-408C-8DE8-A171CBC55D6F,my_iOS_device_1,1444800868.943137,37.75645382705867,-122.4212551118083,16,0,97.3828125,4,5,-9999,1444800869.552965,-19.95314788818359,-12.75592041015625,-17.41290283203125,105.7621917724609,92.05377197265625,25,46395.01731104167,0.1131134033203125,-0.617462158203125,-0.803466796875,46395.00631787501,-0.05872483256511927,-0.1625180739415405,-0.1357612944695144,46394.90745229167,-0.436160004545279,0.1630397105303112,0.629979693175725,0.1492988914251328,0.002465546829625964,-0.2265263795852661,0.01871219091117382,-0.01473822817206383,-0.02155456505715847,XArbitraryZVertical,0.3182154041781306,0.008783610244518252,-0.180397639162297,0.9306548750850031,0.131159633398056,-0.5891283750534058,-0.7973235845565796,0,0,0,-1,10.0.0.62,0.0.0.0,1,2,0.54,0
2015-10-13 22:34:29.769,106,2D29A3A2-A889-408C-8DE8-A171CBC55D6F,my_iOS_device_1,1444800868.943137,37.75645382705867,-122.4212551118083,16,0,97.3828125,4,5,-9999,1444800869.656809,-20.09046173095703,-12.7559814453125,-17.41293334960938,105.9792633056641,92.27084350585938,25,46395.12682383334,0.1699676513671875,-0.5919189453125,-0.778533935546875,46395.10519083334,-0.1185892317606834,-0.02235936788008727,-0.2441921645681996,46395.00631787501,-0.4549864911366023,0.1599586361757556,0.6324645461210454,-0.02325999550521374,-0.1739718466997147,-0.146910160779953,0.006846101488918066,-0.02487818524241447,-0.01379758585244417,XArbitraryZVertical,0.3191322185316184,0.004061254175845315,-0.1894614743726388,0.9285701282284199,0.1284688413143158,-0.5911343693733215,-0.7962762713432312,0,0,0,-1,10.0.0.62,0.0.0.0,1,2,0.54,0
2015-10-13 22:34:29.827,107,2D29A3A2-A889-408C-8DE8-A171CBC55D6F,my_iOS_device_1,1444800868.943137,37.75645382705867,-122.4212551118083,16,0,97.3828125,4,5,-9999,1444800869.75945,-20.22777557373047,-13.0291748046875,-17.69732666015625,106.8843078613281,93.17588806152344,25,46395.23704245834,0.1702423095703125,-0.5937347412109375,-0.8393402099609375,46395.20413816667,-0.1669469108343422,0.01907089656605742,-0.05202565084302494,46395.20413816667,-0.504319189619148,0.1975135767366377,0.6043655157738399,-0.1314681321382523,0.007657923270016909,-0.06321030855178833,0.02457851730287075,0.001147201750427485,-0.07188934832811356,XArbitraryZVertical,0.3102738167641031,0.01726274981248789,-0.2086155889368361,0.9273142359265689,0.1614719033241272,-0.5682401061058044,-0.806864321231842,0,0,0,-1,10.0.0.62,0.0.0.0,1,2,0.54,0
2015-10-13 22:34:29.935,108,2D29A3A2-A889-408C-8DE8-A171CBC55D6F,my_iOS_device_1,1444800868.943137,37.75645382705867,-122.4212551118083,16,0,97.3828125,4,5,-9999,1444800869.863212,-18.37603759765625,-15.93658447265625,-13.6883544921875,120.228271484375,106.5198440551758,25,46395.34666925,0.1632537841796875,-0.552215576171875,-0.9125823974609375,46395.302917,-0.40654112778052,-0.09213099264685522,-0.436924866341125,46395.302917,-0.5229203204895964,0.198630367406247,0.5852928281117964,-0.3710600733757019,-0.1035382151603699,-0.4481140375137329,-0.03069277293980122,-0.0160532109439373,0.001548092695884407,XArbitraryZVertical,0.3018494660551197,0.01750591339231694,-0.2186497468669027,0.9277783846552857,0.1644818335771561,-0.5524435043334961,-0.8171609044075012,0,0,0,-1,10.0.0.62,0.0.0.0,1,2,0.54,0
2015-10-13 22:34:30.068,109,2D29A3A2-A889-408C-8DE8-A171CBC55D6F,my_iOS_device_1,1444800869.931114,37.75645382705867,-122.4212551118083,16,0,97.3828125,4,5,-9999,1444800869.966413,-18.78793334960938,-17.43865966796875,-15.82070922851562,120.9170684814453,107.2086486816406,25,46395.45555679167,0.63873291015625,-0.091644287109375,-1.023406982421875,46395.40178275,-1.842107727059482,1.754240189001735,-2.804793056855723,46395.40178275,-0.6423516357467947,0.2622186808394841,0.4898848083240518,-1.806626081466675,1.742836356163025,-2.815984725952148,-0.3878240585327148,-0.100749559700489,0.1457426846027374,XArbitraryZVertical,0.2681638969230964,0.04445012053600145,-0.2735493513259696,0.9226500222513885,0.2287359237670898,-0.4705242514610291,-0.8522246479988098,0,0,0,-1,10.0.0.62,0.0.0.0,1,2,0.54,0
2015-10-13 22:34:30.314,110,2D29A3A2-A889-408C-8DE8-A171CBC55D6F,my_iOS_device_1,1444800869.931114,37.75645382705867,-122.4212551118083,16,0,97.3828125,4,5,-9999,1444800870.071199,-13.84516906738281,-19.48712158203125,-17.10015869140625,132.2138214111328,118.5054016113281,25,46395.56416666667,0.4163360595703125,-0.287994384765625,-0.9059295654296875,46395.50064983334,-0.5275106929235163,-0.1462219249152366,-1.104122353180933,46395.50064983334,-0.8148109222483371,0.425106420096329,0.3327312322930486,-0.4920297861099243,-0.1576255410909653,-1.11531388759613,0.4256162643432617,0.2614401280879974,-0.0672687292098999,XArbitraryZVertical,0.2310564000999656,0.1268772160465821,-0.3498890805002821,0.898939788510762,0.3897981643676758,-0.3266256749629974,-0.8610302209854126,0,0,0,-1,10.0.0.62,0.0.0.0,1,1,0.54,0
2015-10-13 22:34:30.481,111,2D29A3A2-A889-408C-8DE8-A171CBC55D6F,my_iOS_device_1,1444800869.931114,37.75645382705867,-122.4212551118083,16,0,97.3828125,4,5,-9999,1444800870.174484,-8.421867370605469,-20.9210205078125,-18.3084716796875,144.2420349121094,130.5336151123047,25,46395.67271645834,0.4539031982421875,-0.22540283203125,-0.8199310302734375,46395.59951379167,-0.6293736751418481,1.353951364512394,0.2625498665943338,46395.59951379167,-0.8051429128066305,0.4703416073847618,0.2926486063895455,-0.5938934683799744,1.34254789352417,0.2513585984706879,-0.08380965888500214,-0.06383620947599411,0.006437007337808609,XArbitraryZVertical,0.2207683313119692,0.1565395551565701,-0.3456725391233209,0.8984804990967474,0.4339225888252258,-0.2884892225265503,-0.8535134196281433,0,0,0,-1,10.0.0.62,0.0.0.0,1,1,0.54,0
2015-10-13 22:34:30.748,112,2D29A3A2-A889-408C-8DE8-A171CBC55D6F,my_iOS_device_1,1444800869.931114,37.75645382705867,-122.4212551118083,16,0,97.3828125,4,5,-9999,1444800870.282,-7.872673034667969,-20.64788818359375,-19.58779907226562,143.6287078857422,129.9202880859375,25,46395.78134491667,0.6649932861328125,-0.140838623046875,-0.9684600830078125,46395.69838104167,-0.8329736720589508,0.7877907473207755,0.4239017422945285,46395.69838104167,-0.730420919947172,0.5652910501114554,0.2326971555450292,-0.7974941730499268,0.7763875722885132,0.4127106666564941,0.03031975030899048,-0.01338521670550108,0.06503597646951675,XArbitraryZVertical,0.2030613477829704,0.2189276457779464,-0.3104149972774911,0.9024850715750914,0.5212244391441345,-0.230602815747261,-0.821673572063446,0,0,0,-1,10.0.0.62,0.0.0.0,1,1,0.54,0
2015-10-13 22:34:30.877,113,2D29A3A2-A889-408C-8DE8-A171CBC55D6F,my_iOS_device_1,1444800869.931114,37.75645382705867,-122.4212551118083,16,0,97.3828125,4,5,-9999,1444800870.508747,-7.620338439941406,-16.547119140625,-20.61761474609375,138.1653289794922,124.4569091796875,25,46395.89135208334,0.5789794921875,-0.2325439453125,-0.8427734375,46395.7972495,-0.4668739770118291,-0.05625448433796176,0.2451109551442769,46395.7972495,-0.6677154339873003,0.5812003388377519,0.1850263200448041,-0.4313951134681702,-0.06765743345022202,0.2339201122522354,0.1359569430351257,0.03918175399303436,-0.1643931567668915,XArbitraryZVertical,0.1771116196942073,0.2405459582325838,-0.2876000323919038,0.9099754598424241,0.5396564602851868,-0.1839724034070969,-0.8215382099151611,0,0,0,-1,10.0.0.62,0.0.0.0,5,1,0.54,0
2015-10-13 22:34:30.918,114,2D29A3A2-A889-408C-8DE8-A171CBC55D6F,my_iOS_device_1,1444800869.931114,37.75645382705867,-122.4212551118083,16,0,97.3828125,4,5,-9999,1444800870.612074,-8.993301391601562,-17.09344482421875,-21.47055053710938,136.6707916259766,122.9623641967773,25,46396.00205295833,0.563446044921875,-0.1843719482421875,-0.922088623046875,46395.89611379167,-0.1440274801770113,-0.2643837193209623,0.2396224464537326,46395.89611379167,-0.6361923959864096,0.5608742321609654,0.1854244090611195,-0.1085126027464867,-0.2757939994335175,0.2284186780452728,0.05617103725671768,-0.04818025976419449,-0.01049863267689943,XArbitraryZVertical,0.1706920343904163,0.2339376556970307,-0.2749117734529247,0.9168210945760357,0.5228084325790405,-0.1843636780977249,-0.8322747945785522,0,0,0,-1,10.0.0.62,0.0.0.0,5,1,0.54,0
2015-10-13 22:34:31.028,115,2D29A3A2-A889-408C-8DE8-A171CBC55D6F,my_iOS_device_1,1444800869.931114,37.75645382705867,-122.4212551118083,16,0,97.3828125,4,5,-9999,1444800870.715933,-9.06195068359375,-17.025146484375,-20.68865966796875,136.4083557128906,122.6999359130859,25,46396.11155566667,0.426544189453125,-0.230560302734375,-0.9320526123046875,46396.09384437501,0.219401596928979,0.198227868366195,0.6954411091484247,46395.99497870834,-0.6241801856335069,0.4995687390201127,0.2062368414071043,0.3331665992736816,-0.6774176359176636,0.2041417956352234,0.1120068207383156,0.03964733332395554,-0.0648847371339798,XArbitraryZVertical,0.1704207830090725,0.2033789386838142,-0.2717229431375671,0.9250731896401888,0.46889528632164,-0.2047779411077499,-0.8591875433921814,0,0,0,-1,10.0.0.62,0.0.0.0,5,1,0.54,0
2015-10-13 22:34:31.033,116,2D29A3A2-A889-408C-8DE8-A171CBC55D6F,my_iOS_device_1,1444800869.931114,37.75645382705867,-122.4212551118083,16,0,97.3828125,4,5,-9999,1444800870.715933,-9.06195068359375,-17.025146484375,-20.68865966796875,136.4083557128906,122.6999359130859,25,46396.22015504167,0.4824371337890625,-0.2663726806640625,-0.82098388671875,46396.19271066667,0.134473123450243,-0.1356840627979021,0.3151808539531337,46396.19271066667,-0.5693946491759122,0.460558698798225,0.2879553236450795,0.1699858903884888,-0.1470936834812164,0.3039777278900146,0.04412670060992241,0.03161196038126945,-0.006557544227689505,XArbitraryZVertical,0.1975145560782251,0.1775598896332582,-0.2391923102048003,0.9339419277821994,0.4261491894721985,-0.2839923202991486,-0.8589209914207458,0,0,0,-1,10.0.0.62,0.0.0.0,5,1,0.54,0
2015-10-13 22:34:31.129,117,2D29A3A2-A889-408C-8DE8-A171CBC55D6F,my_iOS_device_1,1444800869.931114,37.75645382705867,-122.4212551118083,16,0,97.3828125,4,5,-9999,1444800870.818994,-7.208442687988281,-16.68377685546875,-19.6224365234375,135.4821166992188,121.7736968994141,25,46396.32918016667,0.492645263671875,-0.309722900390625,-0.8173675537109375,46396.29157954167,0.2263654968634272,-0.0215337879421627,0.6089251253438926,46396.29157954167,-0.5330924109232691,0.4677862111606008,0.3122385757931336,0.261877566576004,-0.03294319286942482,0.5977222323417664,0.1839737892150879,0.06761149317026138,-0.2852015793323517,XArbitraryZVertical,0.2062160423100226,0.1810226721401137,-0.218349110623518,0.9364984794195643,0.4291090965270996,-0.3071897327899933,-0.8494114875793457,0,0,0,-1,10.0.0.62,0.0.0.0,5,1,0.54,0
2015-10-13 22:34:31.134,118,2D29A3A2-A889-408C-8DE8-A171CBC55D6F,my_iOS_device_1,1444800869.931114,37.75645382705867,-122.4212551118083,16,0,97.3828125,4,5,-9999,1444800870.818994,-7.208442687988281,-16.68377685546875,-19.6224365234375,135.4821166992188,121.7736968994141,25,46396.43766795834,0.6244964599609375,-0.3015594482421875,-0.8206787109375,46396.39045408334,0.3458365012610358,0.3013643742178026,1.025020077218963,46396.39045408334,-0.4634966547711298,0.4772997984348307,0.3664638988805687,0.3813478648662567,0.2899551689624786,1.013817429542542,0.1010429486632347,0.03032870404422283,-0.1620427519083023,XArbitraryZVertical,0.2256964481294561,0.1855565765592911,-0.1775130771765027,0.9397441022047789,0.4288795292377472,-0.3583163619041443,-0.8292597532272339,0,0,0,-1,10.0.0.62,0.0.0.0,5,1,0.54,0
2015-10-13 22:34:31.138,119,2D29A3A2-A889-408C-8DE8-A171CBC55D6F,my_iOS_device_1,1444800869.931114,37.75645382705867,-122.4212551118083,16,0,97.3828125,4,5,-9999,1444800870.818994,-7.208442687988281,-16.68377685546875,-19.6224365234375,135.4821166992188,121.7736968994141,25,46396.54827741667,1.328765869140625,0.1395721435546875,-0.9489288330078125,46396.48931375,-0.2409537606826632,0.6250734689296971,1.453603124077633,46396.48931375,-0.3624948524063999,0.4715936848131649,0.4183825659710088,-0.2054430842399597,0.6136645078659058,1.442400693893433,0.4017731249332428,0.1867853850126266,-0.08380433917045593,XArbitraryZVertical,0.2398079279351347,0.1883836027450735,-0.1237272690823523,0.9442962134847623,0.4151214063167572,-0.406283050775528,-0.814007580280304,0,0,0,-1,10.0.0.62,0.0.0.0,5,1,0.54,0
2015-10-13 22:34:31.285,120,2D29A3A2-A889-408C-8DE8-A171CBC55D6F,my_iOS_device_1,1444800870.940993,37.75645382705867,-122.4212551118083,16,0,97.3828125,4,5,-9999,1444800871.129163,-7.75762939453125,-16.95684814453125,-22.6077880859375,125.7408294677734,112.0324020385742,25,46396.65803804167,1.166961669921875,0.9193115234375,-0.7963409423828125,46396.58817904167,-1.283807429825233,2.838204276943531,3.601169569214805,46396.58817904167,-0.09886929019097594,0.5515843151938024,0.4519134082122223,-1.248297452926636,2.826795339584351,3.589967250823975,0.8593949675559998,0.7551996111869812,-0.3057335615158081,XArbitraryZVertical,0.2284230005011765,0.254410589119732,0.01459482969415048,0.9396196975010594,0.4714308083057404,-0.4366876482963562,-0.7661963701248169,0,0,0,-1,10.0.0.62,0.0.0.0,5,1,0.54,0
2015-10-13 22:34:31.361,121,2D29A3A2-A889-408C-8DE8-A171CBC55D6F,my_iOS_device_1,1444800870.940993,37.75645382705867,-122.4212551118083,16,0,97.3828125,4,5,-9999,1444800871.335134,-6.034454345703125,-7.52874755859375,-32.85348510742188,78.29673767089844,64.58831787109375,25,46396.76807941667,-0.9909210205078125,0.0426177978515625,-1.257858276367188,46396.68704283333,-3.593630692801009,3.973181748198012,6.326422260109241,46396.68704283333,0.5019513705558898,0.6459364674419892,0.5086645455836186,-3.558121204376221,3.961773157119751,6.315220355987549,0.3284953236579895,1.443981528282166,-0.193629264831543,XArbitraryZVertical,0.1548298322225422,0.3568033083924983,0.3052844502939939,0.8692068376300285,0.525737464427948,-0.4870113134384155,-0.6974382400512695,0,0,0,-1,10.0.0.62,0.0.0.0,5,1,0.54,0
2015-10-13 22:34:31.468,122,2D29A3A2-A889-408C-8DE8-A171CBC55D6F,my_iOS_device_1,1444800870.940993,37.75645382705867,-122.4212551118083,16,0,97.3828125,4,5,-9999,1444800871.335134,-6.034454345703125,-7.52874755859375,-32.85348510742188,78.29673767089844,64.58831787109375,25,46396.87781487501,-0.311614990234375,-1.186111450195312,-1.966094970703125,46396.785909375,0.9211216409794836,-0.8834384441870803,4.40458401738664,46396.785909375,1.197612988416712,0.4423312864281588,0.6553925367932412,0.9566302299499512,-0.8948466777801514,4.39338207244873,-1.752628922462463,0.5669289827346802,-0.6437236666679382,XArbitraryZVertical,0.1423177400487965,0.3485580899368509,0.5789852813961572,0.7232074133563504,0.339359849691391,-0.6094704866409302,-0.7165058255195618,0,0,0,-1,10.0.0.62,0.0.0.0,5,1,0.54,0
2015-10-13 22:34:31.585,123,2D29A3A2-A889-408C-8DE8-A171CBC55D6F,my_iOS_device_1,1444800870.940993,37.75645382705867,-122.4212551118083,16,0,97.3828125,4,5,-9999,1444800871.442232,-7.687919616699219,-5.2393798828125,-36.40579223632812,45.32929229736328,31.6208667755127,25,46396.98808795834,-0.1993865966796875,-0.39776611328125,-0.6386260986328125,46396.88477420834,-1.900559319296759,-0.4347988648429147,0.6730218201438107,46396.88477420834,1.456915645161611,0.1366917301642752,0.6093070649246608,-1.865018963813782,-0.4462143182754517,0.6618089079856873,-0.4233595728874207,-0.6138120889663696,-1.153699398040771,XArbitraryZVertical,0.1799399531573798,0.2478382945392718,0.6488673557182896,0.6965407006778088,0.1117445975542068,-0.5722993612289429,-0.8123955726623535,0,0,0,-1,10.0.0.62,0.0.0.0,5,1,0.54,0
2015-10-13 22:34:31.734,124,2D29A3A2-A889-408C-8DE8-A171CBC55D6F,my_iOS_device_1,1444800870.940993,37.75645382705867,-122.4212551118083,16,0,97.3828125,4,5,-9999,1444800871.567726,-13.93524169921875,-2.440185546875,-39.177490234375,35.14150238037109,21.43307685852051,25,46397.0982165,0.45111083984375,-0.3353424072265625,-1.395462036132812,46397.08251108334,-1.045917902292815,-0.4974294894627442,-1.289967321426586,46396.98365475,1.523139795997503,0.2213723551952256,0.5867922887033808,-1.607093334197998,0.1018458232283592,-0.1900593489408493,-0.3948145806789398,0.302395761013031,0.6171792149543762,XArbitraryZVertical,0.1350653942190858,0.2748767803535619,0.6796488439763382,0.6665414794208401,0.1828394681215286,-0.5536927580833435,-0.8124001622200012,0,0,0,-1,10.0.0.62,0.0.0.0,5,1,0.54,0
2015-10-13 22:34:31.880,125,2D29A3A2-A889-408C-8DE8-A171CBC55D6F,my_iOS_device_1,1444800870.940993,37.75645382705867,-122.4212551118083,16,0,97.3828125,4,5,-9999,1444800871.775633,-16.81861114501953,-0.25543212890625,-41.73605346679688,40.36465835571289,26.65623474121094,25,46397.209112625,1.97723388671875,0.5987396240234375,-1.039886474609375,46397.18143266667,-0.9053951421103477,-0.143613891259722,-2.146271349899067,46397.18143266667,1.272850878429298,0.1959699931505982,0.3610552388706683,-0.8698569536209106,-0.1550286561250687,-2.157483339309692,0.980937659740448,0.5080315470695496,-0.1484373658895493,XArbitraryZVertical,0.08650805245751357,0.1835957256391212,0.5959878851286122,0.7769217509936054,0.1821635216474533,-0.3532616198062897,-0.9176179170608521,0,0,0,-1,10.0.0.62,0.0.0.0,5,1,0.54,0
2015-10-13 22:34:31.907,126,2D29A3A2-A889-408C-8DE8-A171CBC55D6F,my_iOS_device_1,1444800870.940993,37.75645382705867,-122.4212551118083,16,0,97.3828125,4,5,-9999,1444800871.88162,-11.66972351074219,3.2265625,-42.659912109375,44.78141403198242,31.07299041748047,25,46397.31690570834,0.8667449951171875,0.3927154541015625,-1.419265747070312,46397.28024,-1.211094077318363,-0.03433373908941054,3.861759881879059,46397.28024,1.437682834385524,0.2272200930777086,0.2843732354886627,-1.175556540489197,-0.04574828594923019,3.850548028945923,1.085642099380493,0.8864213824272156,-0.03491112589836121,XArbitraryZVertical,0.03205804825999627,0.1771696567376641,0.6597553354386548,0.7295931000451139,0.2162225842475891,-0.2805559039115906,-0.9351663589477539,0,0,0,-1,10.0.0.62,0.0.0.0,5,1,0.54,0
2015-10-13 22:34:32.050,127,2D29A3A2-A889-408C-8DE8-A171CBC55D6F,my_iOS_device_1,1444800871.977666,37.75645382705867,-122.4212551118083,15,0,97.3828125,4,5,-9999,1444800871.986499,-3.774757385253906,9.0299072265625,-42.44671630859375,23.33793640136719,9.629512786865234,25,46397.42750266667,-0.419647216796875,0.2961578369140625,-1.821975708007812,46397.37910575001,-0.4496425258106894,0.4688628257139003,4.891136091693064,46397.37910575001,1.853445557626816,0.2263352375020982,0.2720882165393108,-0.4141056835651398,0.4574485123157501,4.879924297332764,0.2379493713378906,0.5569208860397339,-1.009444236755371,XArbitraryZVertical,-0.008551724172270427,0.1749404539186272,0.7963963254053984,0.5788571485929823,0.2161521911621094,-0.2687434256076813,-0.9386454224586487,0,0,0,-1,10.0.0.62,0.0.0.0,5,1,0.54,0
2015-10-13 22:34:32.183,128,2D29A3A2-A889-408C-8DE8-A171CBC55D6F,my_iOS_device_1,1444800871.977666,37.75645382705867,-122.4212551118083,15,0,97.3828125,4,5,-9999,1444800872.086945,4.120193481445312,5.13824462890625,-53.03616333007812,354.4635009765625,340.7550659179688,25,46397.53505120834,-1.127883911132812,0.40606689453125,-0.976837158203125,46397.47797995833,1.261604922133351,0.07822662859555152,5.211533545589445,46397.47797995833,2.395550016295781,0.09348245306736681,0.4128452419686504,1.297141075134277,0.06681253015995026,5.200322151184082,-0.7793208360671997,0.7217432856559753,-0.6606636047363281,XArbitraryZVertical,0.03202475827266738,0.2073225954037936,0.9139554082668053,0.3473863382352017,0.08550367504358292,-0.401217132806778,-0.9119834899902344,0,0,0,-1,10.0.0.62,0.0.0.0,5,1,0.54,0
2015-10-13 22:34:32.255,129,2D29A3A2-A889-408C-8DE8-A171CBC55D6F,my_iOS_device_1,1444800871.977666,37.75645382705867,-122.4212551118083,15,0,97.3828125,4,5,-9999,1444800872.196009,11.39727020263672,-11.657470703125,-56.02114868164062,314.813720703125,301.1052856445312,25,46397.64498683334,-0.6425323486328125,-0.0795440673828125,-0.358001708984375,46397.57683970834,2.226642888436568,0.3947196220177673,2.939766854590901,46397.57683970834,2.853666786260238,-0.1383658554107146,0.5996689792167768,2.262178182601929,0.3833057582378387,2.928555488586426,-0.5166789293289185,0.818061888217926,0.139532133936882,XArbitraryZVertical,0.1076335372324001,0.28213234922675,0.9403110708347618,0.1569440959329526,-0.1138600036501884,-0.564369261264801,-0.8176327347755432,0,0,0,-1,10.0.0.62,0.0.0.0,5,1,0.54,0
2015-10-13 22:34:32.345,130,2D29A3A2-A889-408C-8DE8-A171CBC55D6F,my_iOS_device_1,1444800871.977666,37.75645382705867,-122.4212551118083,15,0,97.3828125,4,5,-9999,1444800872.320479,17.10529327392578,-28.39056396484375,-46.34002685546875,300.6952819824219,286.9868469238281,25,46397.75527470834,-0.549652099609375,-0.414093017578125,-0.62127685546875,46397.67570508333,0.7795160394977902,0.4730248138654761,1.469137076399956,46397.67570508333,-3.115316071779668,-0.3330056658157549,0.6803468216903665,0.8150507807731628,0.4616111814975739,1.457926034927368,-0.2686757743358612,0.5045356750488281,0.206100732088089,XArbitraryZVertical,0.1519011146531407,0.3310605524743803,0.9303059565177515,0.04307887220059568,-0.2541055977344513,-0.6290626525878906,-0.7346498966217041,0,0,0,-1,10.0.0.62,0.0.0.0,5,1,0.54,0
2015-10-13 22:34:32.477,131,2D29A3A2-A889-408C-8DE8-A171CBC55D6F,my_iOS_device_1,1444800871.977666,37.75645382705867,-122.4212551118083,15,0,97.3828125,4,5,-9999,1444800872.320479,17.10529327392578,-28.39056396484375,-46.34002685546875,300.6952819824219,286.9868469238281,25,46397.8660525,-0.425048828125,-0.501495361328125,-0.4870758056640625,46397.77457254167,0.2553510758517405,0.5893895071676164,0.5586433123826515,46397.77457254167,-2.969329790876549,-0.4006983926963791,0.6919879749097172,0.2908850908279419,0.5779761075973511,0.5474324226379395,-0.1863704025745392,0.1935195773839951,0.1428870260715485,XArbitraryZVertical,0.1579336195488495,0.3472217131039798,0.9243097070233139,-0.01206728087870498,-0.3003391921520233,-0.6380691528320312,-0.7089881300926208,0,0,0,-1,10.0.0.62,0.0.0.0,5,1,0.54,0
2015-10-13 22:34:32.620,132,2D29A3A2-A889-408C-8DE8-A171CBC55D6F,my_iOS_device_1,1444800871.977666,37.75645382705867,-122.4212551118083,15,0,97.3828125,4,5,-9999,1444800872.527707,18.20689392089844,-32.32305908203125,-41.3575439453125,285.0741271972656,271.3656921386719,25,46397.976419125,-0.3005523681640625,-0.4677276611328125,-0.7135467529296875,46397.873437,-0.5120949849535926,0.6246976968998869,0.1933841109755589,46397.873437,-2.918304353940707,-0.3712138943896983,0.6660585299496704,-0.4765326380729675,0.6132772564888,0.1821636259555817,-0.1398342847824097,0.1163963973522186,0.2456331700086594,XArbitraryZVertical,0.1375218754324714,0.3387229655859879,0.9297632266277055,-0.04352963097707022,-0.2852145433425903,-0.617891788482666,-0.7327089905738831,0,0,0,-1,10.0.0.62,0.0.0.0,5,1,0.54,0
2015-10-13 22:34:32.675,133,2D29A3A2-A889-408C-8DE8-A171CBC55D6F,my_iOS_device_1,1444800871.977666,37.75645382705867,-122.4212551118083,15,0,97.3828125,4,5,-9999,1444800872.63178,19.78594970703125,-29.93389892578125,-41.99664306640625,283.7406616210938,270.0322265625,25,46398.08565308333,-0.321197509765625,-0.4746856689453125,-0.8245849609375,46398.07128512501,-0.6375636944421688,0.08674448302606094,0.08639028260108041,46397.97230275,-2.926056143928307,-0.3353602530902022,0.6098534546460063,-0.631256639957428,0.2127338051795959,0.1287954300642014,-0.02713930234313011,0.108742818236351,0.1095611676573753,XArbitraryZVertical,0.1264338021322742,0.3114183781281966,0.9404237921703212,-0.05134372953306413,-0.2697814702987671,-0.5727473497390747,-0.774066150188446,0,0,0,-1,10.0.0.62,0.0.0.0,5,1,0.54,0
2015-10-13 22:34:32.783,134,2D29A3A2-A889-408C-8DE8-A171CBC55D6F,my_iOS_device_1,1444800871.977666,37.75645382705867,-122.4212551118083,15,0,97.3828125,4,5,-9999,1444800872.736501,19.16805267333984,-28.36383056640625,-43.48782348632812,283.0112915039062,269.3028564453125,25,46398.19438766667,-0.3737030029296875,-0.430023193359375,-1.023056030273438,46398.17003675,-0.7382564836775196,0.4085281122698281,-0.1678377382189737,46398.17003675,-2.96615486896627,-0.3107234552483314,0.4926058270388836,-0.7026815414428711,0.3971262276172638,-0.1790631711483002,-0.1071001440286636,0.01372549682855606,-0.06116043031215668,XArbitraryZVertical,0.1283876478910516,0.2531041910460134,0.9577609242301915,-0.04635614696744576,-0.2693952023983002,-0.4729234874248505,-0.8389097452163696,0,0,0,-1,10.0.0.62,0.0.0.0,5,1,0.54,0
2015-10-13 22:34:32.935,135,2D29A3A2-A889-408C-8DE8-A171CBC55D6F,my_iOS_device_1,1444800871.977666,37.75645382705867,-122.4212551118083,15,0,97.3828125,4,5,-9999,1444800872.839911,21.50230407714844,-26.31597900390625,-44.19784545898438,282.6116333007812,268.9031982421875,25,46398.30483091667,-0.3122100830078125,-0.4380950927734375,-1.219375610351562,46398.26890375,-0.6616053811828591,0.3298375610123848,-0.6418058437425559,46398.26890375,-3.0345981348386,-0.2250935599357828,0.4404216271039543,-0.6260310411453247,0.3184360265731812,-0.6530311107635498,-0.06827385723590851,-0.05657400190830231,-0.3532022833824158,XArbitraryZVertical,0.09783420236484834,0.2226032042673433,0.9696020262364005,-0.02735311711311727,-0.2018982619047165,-0.426320880651474,-0.8817525506019592,0,0,0,-1,10.0.0.62,0.0.0.0,5,1,0.54,0
2015-10-13 22:34:33.072,136,2D29A3A2-A889-408C-8DE8-A171CBC55D6F,my_iOS_device_1,1444800872.934165,37.75645382705867,-122.4212551118083,15,0,97.3828125,4,5,-9999,1444800872.944862,24.72904968261719,-24.3365478515625,-44.83697509765625,283.2780456542969,269.5696105957031,25,46398.4141585,0.04522705078125,-0.3463897705078125,-1.398513793945312,46398.36776904167,-1.701562862639967,0.4784597930181098,-1.425776020163504,46398.36776904167,-3.138974618941674,-0.1374561155494064,0.3753172280951909,-1.665989279747009,0.4670584797859192,-1.43700110912323,-0.2832046747207642,0.1266385018825531,-0.2829588651657104,XArbitraryZVertical,0.06722461519779767,0.1862068492855741,0.9801402697782229,0.01152874449851153,-0.1274856477975845,-0.3665677011013031,-0.9216157197952271,0,0,0,-1,10.0.0.62,0.0.0.0,5,1,0.54,0
2015-10-13 22:34:33.112,137,2D29A3A2-A889-408C-8DE8-A171CBC55D6F,my_iOS_device_1,1444800872.934165,37.75645382705867,-122.4212551118083,15,0,97.3828125,4,5,-9999,1444800873.048779,28.36772155761719,-17.442138671875,-45.47613525390625,288.0475769042969,274.3391418457031,25,46398.52349550001,-0.056671142578125,-0.4116668701171875,-1.123275756835938,46398.46663391667,-0.04386972000465728,-0.42112832633532,0.01023133227586642,46398.46663391667,3.031541872296648,-0.1544561246185628,0.3591302843798542,-0.008296824991703033,-0.4325294196605682,-0.0009935012785717845,-0.05877657234668732,0.1416212618350983,-0.2654940783977509,XArbitraryZVertical,0.0855893384935205,0.1736249566297866,0.9787461979019412,0.06771055799528773,-0.1440279930830002,-0.3514601290225983,-0.9250576496124268,0,0,0,-1,10.0.0.62,0.0.0.0,5,1,0.54,0
2015-10-13 22:34:33.252,138,2D29A3A2-A889-408C-8DE8-A171CBC55D6F,my_iOS_device_1,1444800872.934165,37.75645382705867,-122.4212551118083,15,0,97.3828125,4,5,-9999,1444800873.150317,27.26926422119141,-15.1212158203125,-46.04421997070312,290.792236328125,277.0838012695312,25,46398.63235054167,-0.2564544677734375,-0.245635986328125,-1.099517822265625,46398.565500875,0.2696810130452389,0.02191834840357015,0.4052439020135424,46398.565500875,3.034468055903337,-0.1544992625666145,0.3475366637703195,0.3052532374858856,0.01051748730242252,0.3940192759037018,-0.02580121159553528,0.04233448579907417,-0.3306129276752472,XArbitraryZVertical,0.08513023997273474,0.1680629602222419,0.979880241615273,0.06589685679536278,-0.1446852385997772,-0.3405827879905701,-0.9290153384208679,0,0,0,-1,10.0.0.62,0.0.0.0,5,1,0.54,0
2015-10-13 22:34:33.397,139,2D29A3A2-A889-408C-8DE8-A171CBC55D6F,my_iOS_device_1,1444800872.934165,37.75645382705867,-122.4212551118083,15,0,97.3828125,4,5,-9999,1444800873.25314,27.68119812011719,-15.1212158203125,-45.76016235351562,288.4403076171875,274.7318725585938,25,46398.74249504167,-0.173919677734375,-0.2420806884765625,-1.060256958007812,46398.66436966667,-0.3343060790054287,0.3544872474299402,-0.3791981865525674,46398.66436966667,3.04225682245469,-0.1331796505099054,0.3366891653155055,-0.2987346053123474,0.3430866003036499,-0.3904225826263428,-0.1201373115181923,0.08088276535272598,-0.2482203245162964,XArbitraryZVertical,0.07381910374225412,0.1637161849993725,0.981911945264928,0.05997234727754647,-0.1253308355808258,-0.3303639590740204,-0.9354954957962036,0,0,0,-1,10.0.0.62,0.0.0.0,5,1,0.54,0
2015-10-13 22:34:33.463,140,2D29A3A2-A889-408C-8DE8-A171CBC55D6F,my_iOS_device_1,1444800872.934165,37.75645382705867,-122.4212551118083,15,0,97.3828125,4,5,-9999,1444800873.360793,26.20609283447266,-9.9248046875,-42.525634765625,288.5036010742188,274.795166015625,25,46398.85120241667,-0.257171630859375,-0.194000244140625,-0.87060546875,46398.76323545833,-0.4023426543220101,0.4969325436033354,-0.09565435476903004,46398.76323545833,3.017040792123831,-0.1127259890977274,0.3080047388876294,-0.366756409406662,0.4855431020259857,-0.1068719625473022,-0.06445233523845673,0.09057242423295975,-0.1362682282924652,XArbitraryZVertical,0.06508998943882205,0.1493894402710836,0.9841455485956366,0.07002590656129858,-0.1071937829256058,-0.3031578660011292,-0.9468922019004822,0,0,0,-1,10.0.0.62,0.0.0.0,5,1,0.54,0
2015-10-13 22:34:33.550,141,2D29A3A2-A889-408C-8DE8-A171CBC55D6F,my_iOS_device_1,1444800872.934165,37.75645382705867,-122.4212551118083,15,0,97.3828125,4,5,-9999,1444800873.461126,25.93156433105469,-7.74053955078125,-42.24154663085938,290.7002868652344,276.9918518066406,25,46398.96138391667,-0.10382080078125,-0.1532440185546875,-0.702392578125,46398.862097875,0.1985972488093889,0.6120703185912763,-0.5995870172976387,46398.862097875,2.997191139428969,-0.1013089589705586,0.3125493887290865,0.2342014163732529,0.6006983518600464,-0.6108018755912781,-0.1609356254339218,0.1134852692484856,0.07606833428144455,XArbitraryZVertical,0.06109861691980494,0.1514267370772329,0.9834081337711309,0.07902749357914861,-0.09623600542545319,-0.3074855208396912,-0.9466738104820251,0,0,0,-1,10.0.0.62,0.0.0.0,5,1,0.54,0
2015-10-13 22:34:33.689,142,2D29A3A2-A889-408C-8DE8-A171CBC55D6F,my_iOS_device_1,1444800872.934165,37.75645382705867,-122.4212551118083,15,0,97.3828125,4,5,-9999,1444800873.565827,28.05922698974609,-6.30712890625,-40.18243408203125,293.3416748046875,279.6332397460938,25,46399.07101004167,-0.1186981201171875,-0.2628936767578125,-0.788482666015625,46399.05983183334,-0.2010585422888402,-0.07017056629806182,-1.046868650801973,46398.96096625,2.910757927125447,-0.01452678491558063,0.3099840260217676,-0.134719505906105,0.4520796835422516,-0.7452072501182556,-0.07076079398393631,0.1593677699565887,0.2617624998092651,XArbitraryZVertical,0.02490574918053212,0.1525146674504508,0.981284309910641,0.1148916141127099,-0.01383392885327339,-0.3050434291362762,-0.9522379636764526,0,0,0,-1,10.0.0.62,0.0.0.0,5,1,0.54,0
2015-10-13 22:34:33.840,143,2D29A3A2-A889-408C-8DE8-A171CBC55D6F,my_iOS_device_1,1444800872.934165,37.75645382705867,-122.4212551118083,15,0,97.3828125,4,5,-9999,1444800873.772953,30.25553131103516,1.3380126953125,-39.33035278320312,305.8456726074219,292.1372375488281,25,46399.18021683334,0.0403289794921875,-0.302886962890625,-0.7349090576171875,46399.15869700001,0.02302222867540799,0.01033013555230836,-1.547004178248347,46399.05983183334,2.814944448805981,0.02010631986276611,0.2977727264343809,-0.1654328554868698,-0.08155232667922974,-1.058091998100281,-0.1271608620882034,0.06270930916070938,0.1827277988195419,XArbitraryZVertical,0.01430873845053028,0.1479720021663413,0.9759695137966899,0.1593206035586241,0.01922019198536873,-0.2933916747570038,-0.9557991027832031,0,0,0,-1,10.0.0.62,0.0.0.0,5,1,0.54,0
2015-10-13 22:34:33.879,144,2D29A3A2-A889-408C-8DE8-A171CBC55D6F,my_iOS_device_1,1444800872.934165,37.75645382705867,-122.4212551118083,15,0,97.3828125,4,5,-9999,1444800873.772953,30.25553131103516,1.3380126953125,-39.33035278320312,305.8456726074219,292.1372375488281,25,46399.29032958334,0.0814208984375,-0.13690185546875,-1.378219604492188,46399.25756516667,-1.400539639357804,-0.8647856639121654,-1.590418231390491,46399.25756516667,2.516085731531997,0.05440168348863462,0.237436173987003,-1.364915370941162,-0.8761669993400574,-1.601641058921814,0.00984903983771801,-0.07797513902187347,0.1663528680801392,XArbitraryZVertical,0.01073193370850477,0.1209614442256455,0.94543433961068,0.3023360119050216,0.05284932255744934,-0.235211506485939,-0.9705063104629517,0,0,0,-1,10.0.0.62,0.0.0.0,5,1,0.54,0
2015-10-13 22:34:34.004,145,2D29A3A2-A889-408C-8DE8-A171CBC55D6F,my_iOS_device_1,1444800873.91273,37.75645382705867,-122.4212551118083,15,0,97.3828125,4,5,-9999,1444800873.875638,27.30426788330078,6.7303466796875,-40.25338745117188,316.7694396972656,303.0610046386719,25,46399.39745008334,0.0265655517578125,-0.159271240234375,-1.022476196289062,46399.35643166667,0.9234364605989804,-0.8932801559954682,-0.6651793433657454,46399.35643166667,2.392593037833176,-0.01345254769630686,0.145863670476778,0.9590599536895752,-0.904661238193512,-0.6764019727706909,0.1161077544093132,0.0736764520406723,-0.5200014114379883,XArbitraryZVertical,0.03289812376177763,0.06536133105183574,0.9280163254701945,0.3652825064479261,-0.01330929063260555,-0.1453469842672348,-0.9892911911010742,0,0,0,-1,10.0.0.62,0.0.0.0,5,1,0.54,0
